#================================================================#
# SMARTS2 -- Algorithms and performance assessment               #
#================================================================#
#
# APPENDIX: Extraterrestrial spectrum and absorption coefficients
#           at their reference temperature
#
# λ      E0nλ       Awλ        Aoλ      Anλ  
280    0.0906   0.00E+00   1.05E+02    1.46
281    0.1585   0.00E+00   9.44E+01    1.52
282    0.2692   0.00E+00   8.47E+01    1.55
283    0.3222   0.00E+00   7.92E+01    1.68
284    0.3025   0.00E+00   7.12E+01    1.78
285    0.1865   0.00E+00   6.35E+01    1.91
286    0.2546   0.00E+00   5.77E+01    1.94
287    0.3578   0.00E+00   5.21E+01    1.99
288    0.3225   0.00E+00   4.52E+01    2.08
289    0.4028   0.00E+00   4.05E+01    2.21
290    0.5596   0.00E+00   3.61E+01    2.33
291    0.6110   0.00E+00   3.23E+01    2.52
292    0.5675   0.00E+00   2.78E+01    2.58
293    0.5500   0.00E+00   2.50E+01    2.60
294    0.5428   0.00E+00   2.16E+01    2.71
295    0.5453   0.00E+00   1.92E+01    2.83
296    0.5731   0.00E+00   1.64E+01    3.05
297    0.5064   0.00E+00   1.46E+01    3.30
298    0.5286   0.00E+00   1.25E+01    3.31
299    0.5024   0.00E+00   1.11E+01    3.38
300    0.4700   0.00E+00   9.52E+00    3.42
301    0.4693   0.00E+00   8.29E+00    3.62
302    0.4466   0.00E+00   7.29E+00    3.90
303    0.6041   0.00E+00   6.22E+00    4.08
304    0.6278   0.00E+00   5.58E+00    4.16
305    0.6373   0.00E+00   4.69E+00    4.24
306    0.6000   0.00E+00   4.20E+00    4.38
307    0.6143   0.00E+00   3.59E+00    4.51
308    0.6660   0.00E+00   3.12E+00    4.70
309    0.6097   0.00E+00   2.82E+00    4.96
310    0.5055   0.00E+00   2.31E+00    5.09
311    0.7623   0.00E+00   2.11E+00    5.30
312    0.7005   0.00E+00   1.78E+00    5.47
313    0.6974   0.00E+00   1.53E+00    5.49
314    0.7428   0.00E+00   1.39E+00    5.71
315    0.6868   0.00E+00   1.12E+00    5.88
316    0.5852   0.00E+00   1.05E+00    6.06
317    0.7612   0.00E+00   8.52E-01    6.40
318    0.7193   0.00E+00   8.11E-01    6.51
319    0.7069   0.00E+00   5.82E-01    6.65
320    0.7952   0.00E+00   6.59E-01    6.86
321    0.7724   0.00E+00   4.01E-01    6.94
322    0.7576   0.00E+00   4.59E-01    7.22
323    0.6528   0.00E+00   4.06E-01    7.33
324    0.7345   0.00E+00   2.22E-01    7.55
325    0.8291   0.00E+00   3.41E-01    7.80
326    0.9792   0.00E+00   2.14E-01    7.98
327    0.9993   0.00E+00   1.55E-01    8.11
328    0.9315   0.00E+00   2.41E-01    8.28
329    0.9684   0.00E+00   1.03E-01    8.49
330    1.1286   0.00E+00   1.01E-01    8.55
331    0.9718   0.00E+00   1.54E-01    8.75
332    1.0013   0.00E+00   7.16E-02    9.30
333    0.9760   0.00E+00   5.39E-02    9.25
334    0.9487   0.00E+00   9.91E-02    9.23
335    1.0110   0.00E+00   3.67E-02    9.43
336    0.9065   0.00E+00   2.85E-02    9.57
337    0.8107   0.00E+00   6.23E-02    9.61
338    0.9240   0.00E+00   3.92E-02   10.30
339    0.9737   0.00E+00   1.66E-02   10.43
340    1.0457   0.00E+00   3.07E-02   10.61
341    0.9405   0.00E+00   1.77E-02   10.72
342    1.0010   0.00E+00   7.60E-03   10.28
343    1.0420   0.00E+00   9.41E-03   10.49
344    0.8328   0.00E+00   2.39E-02   10.81
345    0.9194   0.00E+00   1.20E-02   11.19
346    0.9292   0.00E+00   5.62E-03   11.59
347    0.9804   0.00E+00   6.98E-03   11.85
348    0.9314   0.00E+00   5.06E-03   12.15
349    0.8842   0.00E+00   2.43E-03   11.49
350    1.0183   0.00E+00   2.04E-03   11.70
351    1.0191   0.00E+00   3.42E-03   11.85
352    0.9827   0.00E+00   5.02E-03   11.68
353    0.9887   0.00E+00   2.31E-03   12.35
354    1.1280   0.00E+00   1.10E-03   13.07
355    1.1298   0.00E+00   1.31E-03   12.71
356    1.0317   0.00E+00   1.22E-03   13.17
357    0.8369   0.00E+00   1.36E-03   13.48
358    0.7555   0.00E+00   1.26E-03   12.85
359    0.8474   0.00E+00   1.02E-03   12.72
360    1.1151   0.00E+00   9.62E-04   13.23
361    0.8927   0.00E+00   7.66E-04   13.51
362    0.9129   0.00E+00   5.74E-04   13.50
363    1.0740   0.00E+00   3.37E-04   13.55
364    1.0922   0.00E+00   3.38E-04   14.19
365    1.0560   0.00E+00   3.13E-04   14.50
366    1.2973   0.00E+00   0.00E+00   13.98
367    1.2525   0.00E+00   0.00E+00   14.21
368    1.1615   0.00E+00   0.00E+00   14.13
369    1.2021   0.00E+00   0.00E+00   14.15
370    1.2907   0.00E+00   0.00E+00   14.09
371    1.1480   0.00E+00   0.00E+00   14.75
372    1.0890   0.00E+00   0.00E+00   14.95
373    1.0449   0.00E+00   0.00E+00   14.55
374    0.9539   0.00E+00   0.00E+00   14.39
375    0.9484   0.00E+00   0.00E+00   15.30
376    1.1345   0.00E+00   0.00E+00   15.40
377    1.2004   0.00E+00   0.00E+00   14.54
378    1.4325   0.00E+00   0.00E+00   14.55
379    1.2202   0.00E+00   0.00E+00   15.55
380    1.0939   0.00E+00   0.00E+00   15.60
381    1.2592   0.00E+00   0.00E+00   15.23
382    0.9514   0.00E+00   0.00E+00   14.93
383    0.7072   0.00E+00   0.00E+00   15.30
384    0.7826   0.00E+00   0.00E+00   15.70
385    1.0801   0.00E+00   0.00E+00   15.44
386    0.9598   0.00E+00   0.00E+00   15.35
387    0.9969   0.00E+00   0.00E+00   15.70
388    0.9929   0.00E+00   0.00E+00   15.86
389    1.0789   0.00E+00   0.00E+00   15.97
390    1.2447   0.00E+00   0.00E+00   15.97
391    1.3312   0.00E+00   0.00E+00   16.25
392    1.2405   0.00E+00   0.00E+00   15.82
393    0.6884   0.00E+00   0.00E+00   15.25
394    0.7939   0.00E+00   0.00E+00   15.50
395    1.2850   0.00E+00   0.00E+00   16.11
396    1.2319   0.00E+00   0.00E+00   15.68
397    0.6265   0.00E+00   0.00E+00   16.10
398    1.3783   0.00E+00   0.00E+00   16.40
399    1.6672   0.00E+00   0.00E+00   16.43
400    1.7163   0.00E+00   0.00E+00   16.88
401    1.7519   0.00E+00   0.00E+00   16.10
402    1.8012   0.00E+00   0.00E+00   15.25
403    1.7126   0.00E+00   0.00E+00   15.55
404    1.7622   0.00E+00   0.00E+00   16.20
405    1.6983   0.00E+00   0.00E+00   15.70
406    1.6068   0.00E+00   0.00E+00   14.75
407    1.6164   0.00E+00   5.57E-05   15.50
408    1.6861   0.00E+00   1.30E-04   16.64
409    1.8466   0.00E+00   1.86E-04   16.45
410    1.5299   0.00E+00   2.26E-04   16.22
411    1.7390   0.00E+00   2.46E-04   15.33
412    1.8454   0.00E+00   2.28E-04   16.20
413    1.7370   0.00E+00   2.02E-04   16.50
414    1.8192   0.00E+00   2.12E-04   15.39
415    1.7688   0.00E+00   2.68E-04   14.30
416    1.8414   0.00E+00   3.39E-04   14.30
417    1.8174   0.00E+00   3.96E-04   14.92
418    1.6966   0.00E+00   4.26E-04   15.21
419    1.7613   0.00E+00   4.32E-04   15.70
420    1.6368   0.00E+00   4.32E-04   15.82
421    1.9260   0.00E+00   4.60E-04   15.80
422    1.7856   0.00E+00   5.41E-04   15.72
423    1.6634   0.00E+00   6.79E-04   15.97
424    1.7371   0.00E+00   8.62E-04   15.50
425    1.6739   0.00E+00   1.04E-03   13.90
426    1.7277   0.00E+00   1.15E-03   13.70
427    1.5874   0.00E+00   1.15E-03   14.90
428    1.6876   0.00E+00   1.08E-03   14.15
429    1.5558   0.00E+00   1.02E-03   13.40
430    1.2480   0.00E+00   1.02E-03   14.65
431    1.2880   0.00E+00   1.10E-03   14.10
432    1.8042   0.00E+00   1.28E-03   13.40
433    1.8187   0.00E+00   1.44E-03   14.45
434    1.5185   0.00E+00   1.50E-03   15.46
435    1.7717   0.00E+00   1.50E-03   15.08
436    1.9054   0.00E+00   1.51E-03   13.40
437    1.8774   0.00E+00   1.60E-03   12.16
438    1.6579   0.00E+00   1.81E-03   14.05
439    1.7325   0.00E+00   2.16E-03   14.50
440    1.8014   0.00E+00   2.60E-03   12.30
441    1.8649   3.10E-06   3.01E-03   11.15
442    1.9707   2.48E-05   3.31E-03   11.50
443    1.9266   1.59E-04   3.51E-03   12.40
444    1.9971   4.46E-05   3.52E-03   13.95
445    1.9760   5.90E-05   3.36E-03   13.10
446    1.8228   5.84E-05   3.16E-03   12.30
447    2.0043   1.19E-05   3.06E-03   13.90
448    2.0397   2.79E-06   3.14E-03   13.45
449    2.0130   0.00E+00   3.43E-03   11.79
450    2.0902   0.00E+00   3.77E-03   11.70
451    2.1812   0.00E+00   4.01E-03   11.71
452    2.0721   0.00E+00   4.10E-03   11.90
453    1.8733   0.00E+00   4.08E-03   11.21
454    2.0484   0.00E+00   4.10E-03   11.20
455    1.9586   0.00E+00   4.29E-03   10.91
456    2.1017   0.00E+00   4.73E-03   10.51
457    2.1161   0.00E+00   5.43E-03   11.77
458    2.0026   0.00E+00   6.30E-03   11.49
459    2.0615   0.00E+00   7.20E-03   11.30
460    2.0216   0.00E+00   8.07E-03   11.47
461    2.1087   0.00E+00   8.71E-03   10.72
462    2.0854   0.00E+00   9.00E-03   11.50
463    2.1247   0.00E+00   8.93E-03   11.75
464    2.0229   0.00E+00   8.49E-03   10.30
465    1.9781   0.00E+00   7.96E-03    9.10
466    2.0527   0.00E+00   7.72E-03    9.86
467    1.9384   2.12E-06   7.97E-03   10.15
468    2.0119   2.09E-06   8.46E-03    9.21
469    2.0479   9.03E-06   8.94E-03    8.65
470    1.9206   3.34E-05   9.39E-03    8.62
471    1.9660   1.30E-05   9.63E-03    8.78
472    2.1111   1.28E-05   9.74E-03    9.15
473    1.9776   1.27E-05   9.76E-03   10.60
474    2.0550   1.92E-06   1.01E-02   10.95
475    2.0880   0.00E+00   1.08E-02    9.78
476    1.9900   0.00E+00   1.20E-02    8.82
477    2.0469   0.00E+00   1.35E-02    8.42
478    2.1053   0.00E+00   1.52E-02    8.59
479    2.0673   0.00E+00   1.69E-02    9.21
480    2.1149   0.00E+00   1.86E-02    8.85
481    2.0670   0.00E+00   1.99E-02    8.21
482    2.0998   0.00E+00   2.08E-02    7.11
483    2.0276   0.00E+00   2.09E-02    6.64
484    2.0091   0.00E+00   2.04E-02    6.89
485    1.9786   1.49E-05   1.96E-02    7.04
486    1.5715   1.09E-05   1.90E-02    6.90
487    1.7982   7.25E-06   1.87E-02    7.35
488    1.9913   4.10E-06   1.88E-02    8.92
489    1.8816   7.08E-06   1.95E-02    8.50
490    2.0807   1.54E-06   2.04E-02    7.07
491    2.0092   1.52E-06   2.11E-02    6.45
492    1.8427   0.00E+00   2.14E-02    6.55
493    2.0118   0.00E+00   2.17E-02    7.21
494    1.9566   0.00E+00   2.21E-02    7.69
495    2.0698   0.00E+00   2.26E-02    7.57
496    1.9730   0.00E+00   2.36E-02    7.00
497    2.0205   0.00E+00   2.50E-02    5.80
498    1.9077   0.00E+00   2.68E-02    4.95
499    1.9531   0.00E+00   2.90E-02    4.50
500    1.9189   3.54E-06   3.15E-02    4.62
501    1.8556   9.17E-06   3.42E-02    5.16
502    1.8362   7.39E-05   3.68E-02    5.89
503    1.9477   1.78E-04   3.91E-02    6.00
504    1.8371   1.16E-03   4.08E-02    6.58
505    1.9688   1.75E-04   4.19E-02    6.10
506    2.0302   3.07E-04   4.22E-02    5.50
507    1.9238   3.92E-04   4.19E-02    5.17
508    1.8567   2.86E-04   4.13E-02    5.50
509    1.9665   1.63E-04   4.04E-02    5.98
510    1.9029   9.72E-05   3.99E-02    5.85
511    1.9373   2.98E-05   3.96E-02    5.61
512    1.9960   8.12E-06   4.01E-02    5.30
513    1.8645   5.35E-06   4.10E-02    4.61
514    1.8237   0.00E+00   4.20E-02    4.12
515    1.8804   0.00E+00   4.29E-02    3.80
516    1.8695   0.00E+00   4.38E-02    3.59
517    1.5183   0.00E+00   4.47E-02    3.70
518    1.7289   0.00E+00   4.55E-02    4.20
519    1.7665   0.00E+00   4.64E-02    4.28
520    1.8684   0.00E+00   4.74E-02    4.05
521    1.8384   0.00E+00   4.89E-02    3.73
522    1.9206   0.00E+00   5.05E-02    3.68
523    1.7997   0.00E+00   5.25E-02    3.75
524    1.9088   9.81E-06   5.49E-02    4.30
525    1.9470   1.26E-05   5.75E-02    4.77
526    1.8630   9.63E-07   6.01E-02    4.52
527    1.6928   9.51E-06   6.28E-02    4.17
528    1.8548   9.39E-07   6.54E-02    3.89
529    1.9819   4.48E-06   6.79E-02    3.62
530    1.8887   2.48E-06   7.01E-02    3.60
531    2.0090   2.45E-06   7.20E-02    3.53
532    1.9100   0.00E+00   7.34E-02    3.45
533    1.8172   0.00E+00   7.43E-02    3.06
534    1.8898   0.00E+00   7.48E-02    2.60
535    1.9271   0.00E+00   7.49E-02    2.29
536    1.9720   0.00E+00   7.47E-02    2.21
537    1.8126   0.00E+00   7.47E-02    2.35
538    1.9208   2.26E-06   7.51E-02    2.70
539    1.8649   6.10E-06   7.58E-02    2.59
540    1.7989   4.50E-05   7.69E-02    2.30
541    1.8084   2.00E-04   7.82E-02    2.65
542    1.8804   2.12E-04   7.98E-02    3.09
543    1.8233   5.20E-05   8.14E-02    3.10
544    1.9406   1.53E-04   8.29E-02    3.03
545    1.9016   9.74E-05   8.42E-02    3.00
546    1.8810   2.25E-04   8.52E-02    2.74
547    1.8872   9.10E-05   8.63E-02    2.88
548    1.8342   3.83E-05   8.72E-02    2.88
549    1.8952   1.80E-05   8.79E-02    2.70
550    1.8806   1.78E-05   8.86E-02    2.34
551    1.8495   7.48E-06   8.95E-02    2.15
552    1.8885   1.94E-06   9.05E-02    2.29
553    1.8338   1.92E-06   9.15E-02    2.27
554    1.8868   0.00E+00   9.28E-02    1.95
555    1.8961   0.00E+00   9.42E-02    1.60
556    1.8525   0.00E+00   9.59E-02    1.48
557    1.7988   0.00E+00   9.79E-02    1.47
558    1.8301   0.00E+00   1.00E-01    1.41
559    1.7430   0.00E+00   1.03E-01    1.33
560    1.8020   0.00E+00   1.05E-01    1.40
561    1.8708   0.00E+00   1.08E-01    1.53
562    1.8133   0.00E+00   1.10E-01    1.70
563    1.8822   6.18E-07   1.13E-01    2.12
564    1.8421   6.11E-07   1.15E-01    2.29 
565    1.8486   6.04E-07   1.17E-01    1.98 
566    1.8005   1.67E-06   1.18E-01    1.54 
567    1.8636   8.42E-06   1.20E-01    1.60  
568    1.8500   1.30E-04   1.21E-01    1.69 
569    1.8270   7.06E-04   1.23E-01    1.68 
570    1.8170   3.95E-04   1.25E-01    1.9  
571    1.7441   6.40E-05   1.26E-01    1.94 
572    1.8649   3.01E-04   1.27E-01    1.75 
573    1.8449   2.24E-04   1.28E-01    1.42 
574    1.8773   1.82E-04   1.28E-01    1.15 
575    1.8130   1.98E-04   1.28E-01    0.95 
576    1.7948   1.38E-04   1.27E-01    0.80  
577    1.8453   1.03E-04   1.26E-01    0.80  
578    1.7619   3.63E-05   1.25E-01    0.99 
579    1.8634   1.39E-05   1.24E-01    1.10  
580    1.8369   9.45E-06   1.23E-01    1.02 
581    1.8292   5.66E-06   1.22E-01    0.85 
582    1.8632   9.29E-06   1.21E-01    0.78 
583    1.8502   9.21E-06   1.20E-01    0.82 
584    1.8741   2.06E-05   1.19E-01    1.00    
585    1.8252   3.15E-05   1.18E-01    1.15 
586    1.7757   8.46E-05   1.18E-01    1.13 
587    1.8393   2.94E-04   1.18E-01    1.01 
588    1.8024   1.62E-03   1.18E-01    0.93 
589    1.6172   5.64E-03   1.18E-01    1.00    
590    1.7497   5.39E-03   1.19E-01    1.04 
591    1.8083   3.09E-03   1.20E-01    1.28 
592    1.8002   4.72E-03   1.21E-01    1.38 
593    1.8331   2.69E-03   1.23E-01    1.21 
594    1.7942   3.13E-03   1.25E-01    0.92 
595    1.7812   4.27E-03   1.28E-01    0.72 
596    1.7898   1.56E-03   1.30E-01    0.67 
597    1.7968   1.79E-03   1.33E-01    0.66 
598    1.8060   1.20E-03   1.35E-01    0.68 
599    1.7855   8.20E-04   1.37E-01    0.79 
600    1.7762   3.47E-04   1.38E-01    0.83 
601    1.7435   1.01E-04   1.39E-01    0.80  
602    1.7192   5.49E-05   1.39E-01    0.68 
603    1.7809   1.35E-05   1.39E-01    0.49 
604    1.7734   3.29E-06   1.39E-01    0.39 
605    1.7750   0.00E+00   1.37E-01    0.378
606    1.7640   0.00E+00   1.36E-01    0.375
607    1.7620   0.00E+00   1.34E-01    0.395
608    1.7610   0.00E+00   1.32E-01    0.413
609    1.7239   0.00E+00   1.30E-01    0.419
610    1.7520   0.00E+00   1.27E-01    0.470 
611    1.7296   0.00E+00   1.25E-01    0.670 
612    1.7025   0.00E+00   1.22E-01    0.835
613    1.7223   0.00E+00   1.20E-01    0.750 
614    1.6523   0.00E+00   1.18E-01    0.660 
615    1.7196   0.00E+00   1.16E-01    0.660 
616    1.6232   0.00E+00   1.14E-01    0.741
617    1.6366   0.00E+00   1.12E-01    0.680 
618    1.7068   0.00E+00   1.11E-01    0.540 
619    1.6832   0.00E+00   1.09E-01    0.560 
620    1.7050   0.00E+00   1.08E-01    0.589
621    1.7162   0.00E+00   1.07E-01    0.520
622    1.7006   0.00E+00   1.05E-01    0.495
623    1.6628   0.00E+00   1.04E-01    0.472
624    1.6236   0.00E+00   1.03E-01    0.450 
625    1.6353   9.42E-07   1.01E-01    0.432
626    1.7009   1.51E-05   1.00E-01    0.420 
627    1.6982   1.29E-04   9.87E-02    0.416
628    1.6607   3.36E-04   9.73E-02    0.395
629    1.6580   2.30E-04   9.58E-02    0.387
630    1.6444   9.55E-05   9.43E-02    0.379
631    1.6276   2.28E-05   9.29E-02    0.371
632    1.6706   2.63E-04   9.15E-02    0.362
633    1.6648   1.25E-04   9.00E-02    0.355
634    1.6340   6.27E-05   8.84E-02    0.350 
635    1.6236   8.93E-05   8.68E-02    0.347
636    1.6257   6.20E-05   8.53E-02    0.344
637    1.6606   6.48E-05   8.36E-02    0.341
638    1.6550   1.97E-05   8.20E-02    0.338
639    1.6530   2.83E-05   8.03E-02    0.335
640    1.6094   2.36E-05   7.87E-02    0.332
641    1.5836   3.27E-05   7.71E-02    0.331
642    1.6121   2.33E-05   7.56E-02    0.330
643    1.6142   5.36E-05   7.42E-02    0.329
644    1.5963   5.63E-05   7.29E-02    0.328
645    1.6200   1.33E-04   7.16E-02    0.327
646    1.6159   7.13E-04   7.03E-02    0.326
647    1.5812   1.95E-03   6.91E-02    0.325
648    1.5619   3.21E-03   6.79E-02    0.324
649    1.5600   2.64E-03   6.69E-02    0.323
650    1.5189   9.60E-04   6.57E-02    0.322
651    1.5944   5.85E-04   6.47E-02    0.317
652    1.595    3.52E-03   6.36E-02    0.312
653    1.6077   6.57E-04   6.25E-02    0.307
654    1.5962   5.71E-04   6.14E-02    0.302
655    1.4982   1.48E-03   6.03E-02    0.297
656    1.3960   9.80E-04   5.92E-02    0.292
657    1.4362   9.52E-04   5.81E-02    0.287
658    1.5382   4.90E-04   5.70E-02    0.282
659    1.5509   2.81E-04   5.60E-02    0.277
660    1.5576   2.16E-04   5.50E-02    0.272
661    1.5702   5.96E-05   5.40E-02    0.267
662    1.5664   1.35E-05   5.31E-02    0.262
663    1.5700   2.45E-05   5.21E-02    0.257
664    1.5661   1.33E-05   5.11E-02    0.252
665    1.5728   8.72E-06   5.00E-02    0.247
666    1.5674   4.91E-06   4.89E-02    0.242
667    1.5591   3.81E-06   4.77E-02    0.237
668    1.5642   0.00E+00   4.66E-02    0.232
669    1.5589   2.16E-07   4.55E-02    0.227
670    1.5610   0.00E+00   4.45E-02    0.222
671    1.5394   0.00E+00   4.34E-02    0.217
672    1.5061   0.00E+00   4.24E-02    0.212
673    1.5157   0.00E+00   4.13E-02    0.207
674    1.5150   0.00E+00   4.04E-02    0.202
675    1.5150   0.00E+00   3.96E-02    0.201
676    1.5140   0.00E+00   3.87E-02    0.198
677    1.5110   0.00E+00   3.78E-02    0.195
678    1.5070   0.00E+00   3.70E-02    0.192
679    1.5040   0.00E+00   3.62E-02    0.189
680    1.5010   1.97E-07   3.56E-02    0.186
681    1.4980   1.81E-06   3.50E-02    0.183
682    1.4940   4.42E-06   3.44E-02    0.180
683    1.4910   5.44E-06   3.39E-02    0.177
684    1.4880   1.33E-05   3.34E-02    0.174
685    1.4850   7.70E-06   3.28E-02    0.171
686    1.4783   1.32E-05   3.21E-02    0.168
687    1.4414   3.55E-05   3.14E-02    0.165
688    1.4220   7.56E-06   3.05E-02    0.162
689    1.4430   1.45E-05   2.97E-02    0.159
690    1.4740   3.07E-05   2.88E-02    0.156
691    1.4719   1.20E-04   2.80E-02    0.153
692    1.4612   7.34E-04   2.72E-02    0.150
693    1.4610   3.79E-03   2.65E-02    0.147
694    1.4600   7.05E-03   2.58E-02    0.144
695    1.4590   4.75E-03   2.50E-02    0.141
696    1.4500   5.54E-03   2.43E-02    0.138
697    1.4410   8.79E-04   2.36E-02    0.135
698    1.4320   9.06E-04   2.30E-02    0.132
699    1.4230   3.60E-03   2.24E-02    0.129
700    1.4140   3.87E-03   2.18E-02    0.126
701    1.4300   4.32E-03   2.13E-02    0.000
702    1.4375   3.21E-03   2.09E-02    0.000
703    1.4369   3.91E-03   2.05E-02    0.000
704    1.4348   2.00E-03   2.01E-02    0.000
705    1.4258   2.16E-03   1.97E-02    0.000
706    1.4139   1.77E-03   1.94E-02    0.000
707    1.4035   1.41E-03   1.91E-02    0.000
708    1.3987   1.42E-03   1.89E-02    0.000
709    1.4051   6.94E-04   1.86E-02    0.000
710    1.4129   1.02E-03   1.84E-02    0.000
711    1.4109   7.85E-04   1.82E-02    0.000
712    1.4034   4.94E-04   1.80E-02    0.000
713    1.3944   8.01E-04   1.79E-02    0.000
714    1.3855   7.57E-04   1.78E-02    0.000
715    1.3780   1.80E-03   1.77E-02    0.000
716    1.3706   2.20E-03   1.75E-02    0.000
717    1.3645   2.03E-02   1.71E-02    0.000
718    1.3571   3.55E-02   1.67E-02    0.000
719    1.3455   6.52E-02   1.61E-02    0.000
720    1.3395   4.68E-02   1.56E-02    0.000
721    1.3473   2.29E-02   1.50E-02    0.000
722    1.3592   3.76E-03   1.45E-02    0.000
723    1.3655   1.23E-02   1.41E-02    0.000
724    1.3678   3.78E-02   1.37E-02    0.000
725    1.3645   3.03E-02   1.33E-02    0.000 
726    1.3558   2.19E-02   1.30E-02    0.000
727    1.3444   2.29E-02   1.27E-02    0.000
728    1.3357   2.99E-02   1.23E-02    0.000
729    1.3325   2.02E-02   1.19E-02    0.000
730    1.3320   1.39E-02   1.16E-02    0.000
731    1.3302   1.84E-02   1.14E-02    0.000
732    1.3270   1.00E-02   1.12E-02    0.000
733    1.3252   3.66E-03   1.10E-02    0.000
734    1.3248   3.22E-03   1.09E-02    0.000
735    1.3270   2.86E-03   1.08E-02    0.000
736    1.3252   3.81E-03   1.08E-02    0.000
737    1.3140   2.94E-03   1.07E-02    0.000
738    1.3001   1.46E-03   1.06E-02    0.000
739    1.2903   1.52E-03   1.07E-02    0.000
740    1.2832   8.61E-04   1.07E-02    0.000
741    1.2761   4.72E-04   1.08E-02    0.000
742    1.2717   2.11E-04   1.09E-02    0.000
743    1.2713   1.55E-04   1.11E-02    0.000
744    1.2723   5.79E-05   1.12E-02    0.000
745    1.2732   1.21E-05   1.14E-02    0.000
746    1.2755   1.08E-05   1.15E-02    0.000
747    1.2778   4.62E-06   1.15E-02    0.000
748    1.2787   2.34E-06   1.13E-02    0.000
749    1.2783   1.19E-06   1.11E-02    0.000
750    1.2740   7.33E-07   1.06E-02    0.000
751    1.2683   1.18E-06   1.01E-02    0.000
752    1.2653   3.69E-07   9.54E-03    0.000
753    1.2650   1.16E-07   8.99E-03    0.000
754    1.2646   3.65E-07   8.47E-03    0.000
755    1.2629   1.57E-06   8.03E-03    0.000
756    1.2613   9.31E-09   7.63E-03    0.000
757    1.2570   0.00E+00   7.31E-03    0.000
758    1.2501   0.00E+00   7.05E-03    0.000
759    1.2432   0.00E+00   6.85E-03    0.000
760    1.2389   0.00E+00   6.67E-03    0.000
761    1.2386   0.00E+00   6.54E-03    0.000
762    1.2370   0.00E+00   6.69E-03    0.000
763    1.2315   0.00E+00   7.02E-03    0.000
764    1.2246   0.00E+00   6.94E-03    0.000
765    1.2205   0.00E+00   6.86E-03    0.000
766    1.2176   0.00E+00   6.78E-03    0.000
767    1.2121   0.00E+00   6.70E-03    0.000
768    1.2053   0.00E+00   6.73E-03    0.000
769    1.2020   0.00E+00   6.75E-03    0.000
770    1.2040   0.00E+00   6.77E-03    0.000
771    1.2050   0.00E+00   6.90E-03    0.000
772    1.2070   0.00E+00   7.06E-03    0.000
773    1.2090   5.29E-08   7.25E-03    0.000
774    1.1990   8.53E-08   7.52E-03    0.000
775    1.1890   8.49E-08   7.85E-03    0.000
776    1.1930   8.44E-08   8.13E-03    0.000
777    1.1970   5.18E-08   8.31E-03    0.000
778    1.1920   3.56E-07   8.43E-03    0.000
779    1.1900   4.62E-07   8.47E-03    0.000
780    1.1906   2.37E-07   8.38E-03    0.000
781    1.1891   2.31E-07   8.15E-03    0.000
782    1.1863   4.55E-07   7.88E-03    0.000
783    1.1861   4.53E-07   7.50E-03    0.000
784    1.1858   4.51E-07   7.09E-03    0.000
785    1.1843   1.40E-05   6.67E-03    0.000
786    1.1815   3.14E-05   6.34E-03    0.000
787    1.1780   3.48E-04   6.09E-03    0.000
788    1.1760   6.03E-04   5.83E-03    0.000
789    1.1750   1.09E-03   5.57E-03    0.000
790    1.1670   2.34E-03   5.37E-03    0.000
791    1.1590   1.17E-03   5.16E-03    0.000
792    1.1580   1.04E-03   4.93E-03    0.000
793    1.1570   1.21E-03   4.74E-03    0.000
794    1.1560   8.13E-05   4.55E-03    0.000
795    1.1550   2.69E-04   4.39E-03    0.000
796    1.1540   2.03E-03   4.29E-03    0.000
797    1.1530   1.74E-03   4.22E-03    0.000
798    1.1440   4.10E-04   4.17E-03    0.000
799    1.1360   6.68E-04   4.09E-03    0.000
800    1.1390   1.16E-03   4.00E-03    0.000
801    1.1430   1.43E-03   3.97E-03    0.000
802    1.1360   1.25E-03   3.96E-03    0.000
803    1.1300   1.57E-03   3.95E-03    0.000
804    1.1230   1.32E-03   3.96E-03    0.000
805    1.1160   7.69E-04   4.02E-03    0.000
806    1.1180   2.75E-04   4.10E-03    0.000
807    1.1210   3.92E-04   4.22E-03    0.000
808    1.1160   3.15E-04   4.40E-03    0.000
809    1.1100   7.23E-04   4.61E-03    0.000
810    1.1050   1.36E-03   4.82E-03    0.000
811    1.1030   1.59E-03   5.01E-03    0.000
812    1.1010   3.76E-03   5.21E-03    0.000
813    1.1100   6.09E-03   5.40E-03    0.000
814    1.1200   1.88E-02   5.56E-03    0.000
815    1.1050   2.07E-02   5.68E-03    0.000
816    1.0900   3.63E-02   5.73E-03    0.000
817    1.0880   3.71E-02   5.71E-03    0.000
818    1.0860   3.91E-02   5.61E-03    0.000
819    1.0820   2.01E-02   5.45E-03    0.000
820    1.0790   2.52E-02   5.23E-03    0.000
821    1.0710   3.12E-03   4.94E-03    0.000
822    1.0630   6.34E-03   4.61E-03    0.000
823    1.0720   9.27E-02   4.28E-03    0.000
824    1.0820   1.17E-02   3.95E-03    0.000
825    1.0800   5.09E-03   3.65E-03    0.000
826    1.0780   1.15E-02   3.37E-03    0.000
827    1.0740   4.50E-03   3.10E-03    0.000
828    1.0700   2.80E-02   2.88E-03    0.000
829    1.0565   1.22E-02   2.69E-03    0.000
830    1.0430   1.06E-02   2.53E-03    0.000
831    1.0500   9.80E-03   2.38E-03    0.000
832    1.0570   1.46E-02   2.28E-03    0.000
833    1.0475   3.37E-03   2.19E-03    0.000
834    1.0380   6.28E-03   2.11E-03    0.000
835    1.0335   1.07E-03   2.07E-03    0.000
836    1.0290   3.58E-03   2.04E-03    0.000
837    1.0385   1.02E-03   2.02E-03    0.000
838    1.0480   1.51E-03   2.00E-03    0.000
839    1.0375   7.70E-04   2.00E-03    0.000
840    1.0270   5.08E-04   2.01E-03    0.000
841    1.0285   8.81E-04   2.03E-03    0.000
842    1.030    4.69E-04   2.07E-03    0.000
843    1.015    1.44E-04   2.12E-03    0.000
844    1.000    3.37E-04   2.19E-03    0.000
845    1.005    9.55E-05   2.29E-03    0.000
846    1.010    6.46E-05   2.42E-03    0.000
847    1.011    8.30E-06   2.57E-03    0.000
848    1.012    8.08E-05   2.75E-03    0.000
849    0.994    8.10E-05   2.97E-03    0.000
850    0.976    7.72E-05   3.22E-03    0.000
851    0.971    1.52E-04   3.46E-03    0.000
852    0.966    1.57E-04   3.67E-03    0.000
853    0.921    3.11E-05   3.79E-03    0.000
854    0.876    1.13E-04   3.80E-03    0.000
855    0.912    1.81E-05   3.73E-03    0.000
856    0.948    4.66E-05   3.62E-03    0.000
857    0.971    1.20E-05   3.49E-03    0.000
858    0.994    1.75E-05   3.34E-03    0.000
859    0.981    7.29E-06   3.16E-03    0.000
860    0.968    1.55E-07   2.93E-03    0.000
861    0.9765   2.21E-06   2.69E-03    0.000
862    0.985    3.54E-08   2.47E-03    0.000
863    0.953    2.18E-07   2.27E-03    0.000
864    0.921    3.49E-07   2.08E-03    0.000
865    0.904    3.50E-08   1.89E-03    0.000
866    0.887    3.49E-08   1.73E-03    0.000
867    0.9245   3.47E-08   1.60E-03    0.000
868    0.962    8.37E-08   1.49E-03    0.000
869    0.961    3.45E-08   1.40E-03    0.000
870    0.96     3.43E-08   1.33E-03    0.000
871    0.9565   2.21E-07   1.27E-03    0.000
872    0.953    5.61E-08   1.20E-03    0.000
873    0.9545   5.59E-08   1.14E-03    0.000
874    0.956    5.57E-08   1.10E-03    0.000
875    0.957    4.70E-07   1.07E-03    0.000
876    0.958    1.60E-06   1.05E-03    0.000
877    0.946    4.51E-07   1.04E-03    0.000
878    0.934    4.79E-06   1.03E-03    0.000
879    0.9345   3.64E-06   1.04E-03    0.000
880    0.935    2.74E-06   1.06E-03    0.000
881    0.929    2.03E-05   1.07E-03    0.000
882    0.923    3.38E-05   1.10E-03    0.000
883    0.93     1.33E-05   1.14E-03    0.000
884    0.937    2.18E-05   1.18E-03    0.000
885    0.9295   1.52E-05   1.23E-03    0.000
886    0.922    1.76E-04   1.28E-03    0.000
887    0.923    5.11E-05   1.31E-03    0.000
888    0.924    1.86E-04   1.34E-03    0.000
889    0.922    1.14E-05   1.35E-03    0.000
890    0.92     2.02E-04   1.35E-03    0.000
891    0.9155   8.93E-05   1.34E-03    0.000
892    0.911    4.38E-04   1.34E-03    0.000
893    0.9125   1.48E-03   1.37E-03    0.000
894    0.914    3.37E-03   1.43E-03    0.000
895    0.9165   8.76E-03   1.50E-03    0.000
896    0.919    2.06E-02   1.58E-03    0.000
897    0.9065   4.68E-02   1.64E-03    0.000
898    0.894    3.58E-02   1.66E-03    0.000
899    0.8915   1.07E-01   1.65E-03    0.000
900    0.889    3.29E-02   1.60E-03    0.000
901    0.89     6.65E-02   1.53E-03    0.000
902    0.891    4.97E-02   1.45E-03    0.000
903    0.886    4.38E-02   1.36E-03    0.000
904    0.881    7.32E-03   1.28E-03    0.000
905    0.881    8.47E-03   1.18E-03    0.000
906    0.881    1.32E-02   1.08E-03    0.000
907    0.8675   6.50E-02   9.87E-04    0.000
908    0.854    5.03E-02   9.18E-04    0.000
909    0.8595   2.93E-02   8.51E-04    0.000
910    0.865    5.23E-02   7.85E-04    0.000
911    0.869    4.08E-02   7.22E-04    0.000
912    0.873    3.60E-02   6.69E-04    0.000
913    0.869    5.61E-02   6.25E-04    0.000
914    0.865    6.49E-02   5.77E-04    0.000
915    0.8625   3.59E-02   5.42E-04    0.000
916    0.86     9.20E-02   5.22E-04    0.000
917    0.8605   2.14E-02   5.01E-04    0.000
918    0.861    6.60E-02   4.82E-04    0.000
919    0.848    2.06E-02   4.67E-04    0.000
920    0.835    1.51E-02   4.53E-04    0.000
921    0.8315   7.47E-03   4.46E-04    0.000
922    0.828    1.98E-02   4.43E-04    0.000
923    0.831    8.24E-03   4.39E-04    0.000
924    0.834    1.86E-02   4.37E-04    0.000
925    0.8365   2.19E-02   4.40E-04    0.000
926    0.839    1.78E-02   4.42E-04    0.000
927    0.842    9.63E-03   4.41E-04    0.000
928    0.845    6.34E-02   4.38E-04    0.000
929    0.8425   8.74E-02   4.41E-04    0.000
930    0.84     1.91E-01   4.43E-04    0.000
931    0.844    2.44E-01   4.48E-04    0.000
932    0.848    5.04E-01   4.46E-04    0.000
933    0.8415   6.11E-01   4.37E-04    0.000
934    0.835    1.21E+00   4.40E-04    0.000
935    0.8275   7.26E-01   4.59E-04    0.000
936    0.82     1.16E+00   4.93E-04    0.000
937    0.824    1.00E+00   5.45E-04    0.000
938    0.828    8.21E-01   6.15E-04    0.000
939    0.8245   2.70E-01   6.91E-04    0.000
940    0.821    1.67E-01   7.80E-04    0.000
941    0.8135   2.59E-01   8.79E-04    0.000
942    0.806    2.15E-01   9.73E-04    0.000
943    0.814    5.55E-01   1.05E-03    0.000
944    0.822    6.33E-01   1.09E-03    0.000
945    0.8195   2.78E-01   1.08E-03    0.000
946    0.817    8.44E-01   1.03E-03    0.000
947    0.809    3.00E-01   9.39E-04    0.000
948    0.801    4.73E-01   8.41E-04    0.000
949    0.802    1.48E-01   7.38E-04    0.000
950    0.803    9.85E-01   6.53E-04    0.000
951    0.7995   1.52E-01   5.76E-04    0.000
952    0.796    5.06E-01   5.20E-04    0.000
953    0.7905   2.95E-01   4.54E-04    0.000
954    0.785    1.97E-01   4.11E-04    0.000
955    0.792    3.16E-01   4.04E-04    0.000
956    0.799    2.83E-01   3.86E-04    0.000
957    0.7975   4.03E-01   3.67E-04    0.000
958    0.796    1.52E-01   3.42E-04    0.000
959    0.794    2.59E-01   3.12E-04    0.000
960    0.792    1.75E-01   2.86E-04    0.000
961    0.7915   1.32E-01   2.66E-04    0.000
962    0.791    1.37E-01   2.51E-04    0.000
963    0.7895   9.46E-02   2.39E-04    0.000
964    0.788    1.34E-01   2.31E-04    0.000
965    0.784    9.60E-02   2.23E-04    0.000
966    0.78     7.35E-02   2.12E-04    0.000
967    0.789    8.71E-02   1.92E-04    0.000
968    0.798    1.65E-02   1.75E-04    0.000
969    0.7905   1.20E-02   1.63E-04    0.000
970    0.783    2.27E-02   1.47E-04    0.000
971    0.783    7.08E-03   1.35E-04    0.000
972    0.783    1.32E-02   1.25E-04    0.000
973    0.775    2.77E-02   1.17E-04    0.000
974    0.767    4.03E-02   1.13E-04    0.000
975    0.775    4.12E-02   1.08E-04    0.000
976    0.783    4.57E-02   1.06E-04    0.000
977    0.782    1.79E-02   1.03E-04    0.000
978    0.781    2.61E-02   1.02E-04    0.000
979    0.7765   1.68E-02   1.00E-04    0.000
980    0.772    2.81E-02   9.96E-05    0.000
981    0.773    4.36E-03   1.03E-04    0.000
982    0.774    7.40E-03   1.09E-04    0.000
983    0.775    1.11E-02   1.18E-04    0.000
984    0.776    1.95E-03   1.35E-04    0.000
985    0.767    6.71E-03   1.60E-04    0.000
986    0.758    5.00E-04   1.94E-04    0.000
987    0.7625   1.18E-03   2.35E-04    0.000
988    0.767    8.84E-04   2.81E-04    0.000
989    0.765    9.85E-05   3.39E-04    0.000
990    0.763    9.78E-04   4.98E-04    0.000
991    0.7585   1.42E-04   7.88E-04    0.000
992    0.754    8.64E-05   7.35E-04    0.000
993    0.755    5.26E-04   5.99E-04    0.000
994    0.756    4.45E-05   5.89E-04    0.000
995    0.7495   1.49E-05   5.58E-04    0.000
996    0.743    5.82E-05   4.59E-04    0.000
997    0.743    3.32E-05   3.67E-04    0.000
998    0.743    4.32E-05   3.06E-04    0.000
999    0.742    3.95E-05   2.53E-04    0.000
1000   0.741    1.23E-04   2.06E-04    0.000 
1001   0.7378   2.53E-05   1.93E-04    0.000 
1002   0.7346   6.45E-04   1.63E-04    0.000 
1003   0.7314   4.00E-05   1.49E-04    0.000 
1004   0.7282   1.48E-04   1.38E-04    0.000 
1005   0.725    1.25E-05   1.14E-04    0.000 
1006   0.7246   7.62E-05   1.17E-04    0.000 
1007   0.7242   3.55E-05   1.01E-04    0.000 
1008   0.7238   1.08E-04   9.07E-05    0.000 
1009   0.7234   2.16E-04   9.21E-05    0.000 
1010   0.723    3.04E-04   8.02E-05    0.000 
1011   0.7228   2.73E-05   7.31E-05    0.000 
1012   0.7226   9.85E-05   7.41E-05    0.000 
1013   0.7224   1.51E-05   6.86E-05    0.000 
1014   0.7222   1.41E-05   6.30E-05    0.000
1015   0.722    2.24E-05   6.02E-05    0.000
1016   0.7208   2.59E-05   6.02E-05    0.000
1017   0.7196   3.23E-05   5.59E-05    0.000
1018   0.7184   7.50E-06   5.16E-05    0.000
1019   0.7172   1.38E-04   5.09E-05    0.000
1020   0.716    1.79E-05   4.91E-05    0.000
1021   0.7178   4.90E-06   4.42E-05    0.000
1022   0.7196   3.21E-05   4.07E-05    0.000
1023   0.7214   4.19E-05   3.92E-05    0.000
1024   0.7232   2.29E-04   3.88E-05    0.000
1025   0.725    7.42E-06   3.71E-05    0.000
1026   0.72     2.21E-05   3.59E-05    0.000
1027   0.715    2.09E-05   3.61E-05    0.000
1028   0.71     2.43E-05   3.77E-05    0.000
1029   0.705    2.92E-05   3.78E-05    0.000
1030   0.7      2.34E-06   3.81E-05    0.000
1031   0.699    9.56E-06   3.81E-05    0.000
1032   0.698    1.93E-06   3.89E-05    0.000
1033   0.697    2.33E-06   4.01E-05    0.000
1034   0.696    6.74E-07   4.23E-05    0.000
1035   0.695    1.31E-07   4.52E-05    0.000
1036   0.6918   1.56E-06   4.75E-05    0.000
1037   0.6886   1.31E-07   5.05E-05    0.000
1038   0.6854   1.30E-07   5.25E-05    0.000
1039   0.6822   4.49E-07   5.59E-05    0.000
1040   0.679    1.30E-07   6.13E-05    0.000
1041   0.6804   4.47E-07   6.73E-05    0.000
1042   0.6818   1.29E-07   7.39E-05    0.000
1043   0.6832   1.29E-07   8.39E-05    0.000
1044   0.6846   1.29E-07   1.02E-04    0.000
1045   0.686    1.29E-07   1.44E-04    0.000
1046   0.6824   1.28E-07   1.88E-04    0.000
1047   0.6788   1.28E-07   1.56E-04    0.000
1048   0.6752   1.28E-07   1.38E-04    0.000
1049   0.6716   1.28E-07   1.39E-04    0.000
1050   0.668    1.27E-07   1.34E-04    0.000
1051   0.6662   1.27E-07   1.18E-04    0.000
1052   0.6644   1.27E-07   9.58E-05    0.000
1053   0.6626   1.27E-07   8.42E-05    0.000
1054   0.6608   1.26E-07   7.32E-05    0.000
1055   0.659    4.36E-07   7.02E-05    0.000
1056   0.6572   6.50E-07   6.07E-05    0.000
1057   0.6554   4.35E-07   6.06E-05    0.000
1058   0.6536   4.34E-07   5.33E-05    0.000
1059   0.6518   1.18E-06   5.13E-05    0.000
1060   0.65     4.33E-07   4.98E-05    0.000
1061   0.6496   8.94E-07   4.63E-05    0.000
1062   0.6492   5.18E-06   4.90E-05    0.000
1063   0.6488   7.04E-06   5.03E-05    0.000
1064   0.6484   2.57E-07   5.33E-05    0.000
1065   0.648    2.67E-05   6.20E-05    0.000
1066   0.6464   1.49E-06   6.05E-05    0.000
1067   0.6448   1.15E-05   5.16E-05    0.000
1068   0.6432   3.16E-05   4.83E-05    0.000
1069   0.6416   5.68E-05   4.96E-05    0.000
1070   0.64     1.89E-04   4.54E-05    0.000
1071   0.6382   1.31E-05   3.85E-05    0.000
1072   0.6364   1.78E-04   3.38E-05    0.000
1073   0.6346   1.40E-04   3.00E-05    0.000
1074   0.6328   8.31E-06   2.86E-05    0.000
1075   0.631    1.08E-03   2.85E-05    0.000
1076   0.629    6.50E-05   2.57E-05    0.000
1077   0.627    5.63E-04   2.61E-05    0.000
1078   0.625    8.58E-04   2.34E-05    0.000
1079   0.623    3.52E-05   2.28E-05    0.000
1080   0.621    1.59E-03   2.05E-05    0.000
1081   0.6196   1.41E-03   1.85E-05    0.000
1082   0.6182   4.49E-04   1.86E-05    0.000
1083   0.6168   1.82E-04   1.89E-05    0.000
1084   0.6154   2.05E-03   1.89E-05    0.000
1085   0.614    8.82E-04   1.87E-05    0.000
1086   0.6136   6.46E-03   2.10E-05    0.000
1087   0.6132   1.59E-03   2.00E-05    0.000
1088   0.6128   5.91E-04   1.94E-05    0.000
1089   0.6124   2.19E-03   1.72E-05    0.000
1090   0.612    4.00E-03   1.28E-05    0.000
1091   0.6094   1.06E-03   1.01E-05    0.000
1092   0.6068   9.01E-04   0.00E+00    0.000
1093   0.6042   1.06E-02   0.00E+00    0.000
1094   0.6016   1.61E-03   0.00E+00    0.000
1095   0.599    7.02E-03   0.00E+00    0.000
1096   0.6008   1.25E-02   0.00E+00    0.000
1097   0.6026   6.31E-04   0.00E+00    0.000
1098   0.6044   1.20E-02   0.00E+00    0.000
1099   0.6062   1.01E-02   0.00E+00    0.000
1100   0.608    2.23E-02   0.00E+00    0.000
1101   0.6066   1.74E-02   0.00E+00    0.000
1102   0.6052   2.32E-02   0.00E+00    0.000
1103   0.6038   2.65E-02   0.00E+00    0.000
1104   0.6024   2.48E-02   0.00E+00    0.000
1105   0.601    1.62E-02   0.00E+00    0.000
1106   0.6012   6.10E-02   0.00E+00    0.000
1107   0.6014   1.90E-02   0.00E+00    0.000
1108   0.6016   5.22E-02   0.00E+00    0.000
1109   0.6018   5.34E-02   0.00E+00    0.000
1110   0.602    2.07E-02   0.00E+00    0.000
1111   0.5992   1.55E-01   0.00E+00    0.000
1112   0.5964   5.91E-02   0.00E+00    0.000
1113   0.5936   2.55E-01   0.00E+00    0.000
1114   0.5908   1.96E-01   0.00E+00    0.000
1115   0.588    3.85E-01   0.00E+00    0.000
1116   0.586    4.64E-01   0.00E+00    0.000
1117   0.584    1.45E+00   0.00E+00    0.000
1118   0.582    5.11E-01   0.00E+00    0.000
1119   0.58     1.06E+00   0.00E+00    0.000
1120   0.578    7.94E-01   0.00E+00    0.000
1121   0.576    7.03E-01   0.00E+00    0.000
1122   0.574    1.70E+00   0.00E+00    0.000
1123   0.572    1.30E+00   0.00E+00    0.000
1124   0.57     1.47E+00   0.00E+00    0.000
1125   0.568    9.31E-01   0.00E+00    0.000
1126   0.5674   2.25E+00   0.00E+00    0.000
1127   0.5668   7.11E-01   0.00E+00    0.000
1128   0.5662   1.30E+00   0.00E+00    0.000
1129   0.5656   1.23E+00   0.00E+00    0.000
1130   0.565    1.64E+00   0.00E+00    0.000
1131   0.5644   1.66E-01   0.00E+00    0.000
1132   0.5638   3.15E-01   0.00E+00    0.000
1133   0.5632   8.06E-01   0.00E+00    0.000
1134   0.5626   2.93E+00   0.00E+00    0.000
1135   0.562    5.83E+00   0.00E+00    0.000
1136   0.5608   1.03E+00   0.00E+00    0.000
1137   0.5596   1.71E-01   0.00E+00    0.000
1138   0.5584   4.05E-01   0.00E+00    0.000
1139   0.5572   2.13E-01   0.00E+00    0.000
1140   0.556    2.64E-01   0.00E+00    0.000
1141   0.5556   5.22E-01   0.00E+00    0.000
1142   0.5552   4.18E-01   0.00E+00    0.000
1143   0.5548   1.26E-01   0.00E+00    0.000
1144   0.5544   1.23E+00   0.00E+00    0.000
1145   0.554    7.73E-01   0.00E+00    0.000
1146   0.5518   7.76E-01   0.00E+00    0.000
1147   0.5496   2.03E+00   0.00E+00    0.000
1148   0.5474   2.31E-01   0.00E+00    0.000
1149   0.5452   4.60E-01   0.00E+00    0.000
1150   0.543    9.44E-01   0.00E+00    0.000
1151   0.5448   4.45E-01   0.00E+00    0.000
1152   0.5466   3.55E-01   0.00E+00    0.000
1153   0.5484   4.19E-01   0.00E+00    0.000
1154   0.5502   6.20E-01   0.00E+00    0.000
1155   0.552    1.56E-01   0.00E+00    0.000
1156   0.5492   2.33E-01   0.00E+00    0.000
1157   0.5464   1.34E-01   0.00E+00    0.000
1158   0.5436   1.66E-01   0.00E+00    0.000
1159   0.5408   1.23E-01   0.00E+00    0.000
1160   0.538    1.64E-01   0.00E+00    0.000
1161   0.536    7.06E-02   0.00E+00    0.000
1162   0.534    7.16E-02   0.00E+00    0.000
1163   0.532    1.49E-02   0.00E+00    0.000
1164   0.53     3.53E-02   0.00E+00    0.000
1165   0.528    4.92E-02   0.00E+00    0.000
1166   0.5286   5.07E-02   0.00E+00    0.000
1167   0.5292   3.17E-02   0.00E+00    0.000
1168   0.5298   2.74E-02   0.00E+00    0.000
1169   0.5304   2.02E-02   0.00E+00    0.000
1170   0.531    1.15E-02   0.00E+00    0.000
1171   0.5294   1.51E-02   0.00E+00    0.000
1172   0.5278   1.38E-02   0.00E+00    0.000
1173   0.5262   1.13E-02   0.00E+00    0.000
1174   0.5246   8.15E-02   0.00E+00    0.000
1175   0.523    1.03E-02   0.00E+00    0.000
1176   0.5208   3.94E-03   0.00E+00    0.000
1177   0.5186   6.91E-03   0.00E+00    0.000
1178   0.5164   5.50E-02   0.00E+00    0.000
1179   0.5142   4.72E-03   0.00E+00    0.000
1180   0.512    1.46E-02   0.00E+00    0.000
1181   0.5114   9.63E-03   0.00E+00    0.000
1182   0.5108   1.08E-01   0.00E+00    0.000
1183   0.5102   7.12E-03   0.00E+00    0.000
1184   0.5096   2.13E-02   0.00E+00    0.000
1185   0.509    2.92E-02   0.00E+00    0.000
1186   0.5088   3.96E-03   0.00E+00    0.000
1187   0.5086   1.01E-02   0.00E+00    0.000
1188   0.5084   8.06E-02   0.00E+00    0.000
1189   0.5082   1.30E-02   0.00E+00    0.000
1190   0.508    4.82E-03   0.00E+00    0.000
1191   0.506    1.16E-02   0.00E+00    0.000
1192   0.504    4.16E-03   0.00E+00    0.000
1193   0.502    8.74E-03   0.00E+00    0.000
1194   0.5      4.97E-03   0.00E+00    0.000
1195   0.498    9.11E-03   0.00E+00    0.000
1196   0.4968   1.33E-02   0.00E+00    0.000
1197   0.4956   2.60E-03   0.00E+00    0.000
1198   0.4944   9.16E-03   0.00E+00    0.000
1199   0.4932   3.28E-02   0.00E+00    0.000
1200   0.492    7.12E-03   0.00E+00    0.000
1201   0.4914   1.22E-02   0.00E+00    0.000
1202   0.4908   1.28E-02   0.00E+00    0.000
1203   0.4902   7.47E-03   0.00E+00    0.000
1204   0.4896   3.78E-02   0.00E+00    0.000
1205   0.489    8.89E-03   0.00E+00    0.000
1206   0.488    1.09E-03   0.00E+00    0.000
1207   0.487    1.11E-02   0.00E+00    0.000
1208   0.486    7.38E-03   0.00E+00    0.000
1209   0.485    7.29E-03   0.00E+00    0.000
1210   0.484    4.18E-03   0.00E+00    0.000
1211   0.486    8.19E-03   0.00E+00    0.000
1212   0.488    1.19E-02   0.00E+00    0.000
1213   0.49     1.86E-03   0.00E+00    0.000
1214   0.492    8.35E-03   0.00E+00    0.000
1215   0.494    9.73E-03   0.00E+00    0.000
1216   0.4902   1.96E-03   0.00E+00    0.000
1217   0.4864   3.43E-03   0.00E+00    0.000
1218   0.4826   1.86E-03   0.00E+00    0.000
1219   0.4788   2.16E-03   0.00E+00    0.000
1220   0.475    2.41E-03   0.00E+00    0.000
1221   0.4748   1.75E-03   0.00E+00    0.000
1222   0.4746   2.56E-03   0.00E+00    0.000
1223   0.4744   2.57E-03   0.00E+00    0.000
1224   0.4742   2.89E-03   0.00E+00    0.000
1225   0.474    1.44E-03   0.00E+00    0.000
1226   0.4744   9.47E-04   0.00E+00    0.000
1227   0.4748   3.82E-03   0.00E+00    0.000
1228   0.4752   5.92E-04   0.00E+00    0.000
1229   0.4756   7.54E-04   0.00E+00    0.000
1230   0.476    1.28E-03   0.00E+00    0.000
1231   0.4744   1.20E-04   0.00E+00    0.000
1232   0.4728   1.48E-04   0.00E+00    0.000
1233   0.4712   1.83E-03   0.00E+00    0.000
1234   0.4696   1.39E-05   0.00E+00    0.000
1235   0.468    9.84E-05   0.00E+00    0.000
1236   0.4676   2.67E-05   0.00E+00    0.000
1237   0.4672   2.45E-04   0.00E+00    0.000
1238   0.4668   2.03E-05   0.00E+00    0.000
1239   0.4664   2.03E-05   0.00E+00    0.000
1240   0.466    4.91E-06   0.00E+00    0.000
1241   0.4634   1.09E-04   0.00E+00    0.000
1242   0.4608   7.21E-06   0.00E+00    0.000
1243   0.4582   3.01E-06   0.00E+00    0.000
1244   0.4556   2.02E-05   0.00E+00    0.000
1245   0.453    3.44E-06   0.00E+00    0.000
1246   0.4546   3.00E-06   0.00E+00    0.000
1247   0.4562   7.19E-06   0.00E+00    0.000
1248   0.4578   3.12E-05   0.00E+00    0.000
1249   0.4594   3.89E-06   0.00E+00    0.000
1250   0.461    5.42E-06   0.00E+00    0.000
1251   0.459    4.37E-06   0.00E+00    0.000
1252   0.457    9.14E-06   0.00E+00    0.000
1253   0.455    4.88E-06   0.00E+00    0.000
1254   0.453    3.87E-05   0.00E+00    0.000
1255   0.451    1.63E-05   0.00E+00    0.000
1256   0.4472   9.12E-06   0.00E+00    0.000
1257   0.4434   5.96E-06   0.00E+00    0.000
1258   0.4396   2.64E-05   0.00E+00    0.000
1259   0.4358   6.53E-06   0.00E+00    0.000
1260   0.432    2.53E-05   0.00E+00    0.000
1261   0.4308   2.52E-05   0.00E+00    0.000
1262   0.4296   7.76E-06   0.00E+00    0.000
1263   0.4284   3.72E-05   0.00E+00    0.000
1264   0.4272   3.59E-05   0.00E+00    0.000
1265   0.426    1.20E-05   0.00E+00    0.000
1266   0.4262   5.37E-06   0.00E+00    0.000
1267   0.4264   5.12E-05   0.00E+00    0.000
1268   0.4266   2.20E-05   0.00E+00    0.000
1269   0.4268   1.80E-05   0.00E+00    0.000
1270   0.427    1.28E-05   0.00E+00    0.000
1271   0.4298   9.11E-05   0.00E+00    0.000
1272   0.4326   5.42E-05   0.00E+00    0.000
1273   0.4354   4.11E-05   0.00E+00    0.000
1274   0.4382   9.89E-05   0.00E+00    0.000
1275   0.441    1.71E-05   0.00E+00    0.000
1276   0.4376   6.37E-05   0.00E+00    0.000
1277   0.4342   3.63E-04   0.00E+00    0.000
1278   0.4308   1.20E-05   0.00E+00    0.000
1279   0.4274   2.12E-04   0.00E+00    0.000
1280   0.424    2.57E-04   0.00E+00    0.000
1281   0.4244   2.76E-04   0.00E+00    0.000
1282   0.4248   3.19E-05   0.00E+00    0.000
1283   0.4252   5.71E-05   0.00E+00    0.000
1284   0.4256   2.86E-04   0.00E+00    0.000
1285   0.426    1.81E-04   0.00E+00    0.000
1286   0.427    1.20E-04   0.00E+00    0.000
1287   0.428    4.80E-04   0.00E+00    0.000
1288   0.429    5.76E-04   0.00E+00    0.000
1289   0.43     1.91E-03   0.00E+00    0.000
1290   0.431    4.63E-04   0.00E+00    0.000
1291   0.4302   2.11E-04   0.00E+00    0.000
1292   0.4294   2.55E-03   0.00E+00    0.000
1293   0.4286   1.01E-03   0.00E+00    0.000
1294   0.4278   1.39E-03   0.00E+00    0.000
1295   0.427    1.62E-03   0.00E+00    0.000
1296   0.427    3.03E-03   0.00E+00    0.000
1297   0.427    6.18E-03   0.00E+00    0.000
1298   0.427    2.24E-03   0.00E+00    0.000
1299   0.427    6.45E-04   0.00E+00    0.000
1300   0.427    1.21E-02   0.00E+00    0.000
1301   0.4252   8.44E-03   0.00E+00    0.000
1302   0.4234   2.22E-03   0.00E+00    0.000
1303   0.4216   1.65E-02   0.00E+00    0.000
1304   0.4198   3.67E-02   0.00E+00    0.000
1305   0.418    3.88E-03   0.00E+00    0.000
1306   0.4162   3.33E-03   0.00E+00    0.000
1307   0.4144   3.53E-02   0.00E+00    0.000
1308   0.4126   1.67E-02   0.00E+00    0.000
1309   0.4108   3.00E-03   0.00E+00    0.000
1310   0.409    4.03E-02   0.00E+00    0.000
1311   0.4084   1.95E-02   0.00E+00    0.000
1312   0.4078   1.59E-02   0.00E+00    0.000
1313   0.4072   2.26E-02   0.00E+00    0.000
1314   0.4066   5.93E-02   0.00E+00    0.000
1315   0.406    3.88E-02   0.00E+00    0.000
1316   0.4062   1.61E-02   0.00E+00    0.000
1317   0.4064   3.32E-02   0.00E+00    0.000
1318   0.4066   1.38E-02   0.00E+00    0.000
1319   0.4068   6.69E-02   0.00E+00    0.000
1320   0.407    9.65E-02   0.00E+00    0.000
1321   0.406    3.99E-02   0.00E+00    0.000
1322   0.405    3.05E-02   0.00E+00    0.000
1323   0.404    1.14E-01   0.00E+00    0.000
1324   0.403    7.62E-02   0.00E+00    0.000
1325   0.402    2.17E-02   0.00E+00    0.000
1326   0.4008   4.76E-02   0.00E+00    0.000
1327   0.3996   6.52E-02   0.00E+00    0.000
1328   0.3984   1.11E-01   0.00E+00    0.000
1329   0.3972   2.24E-01   0.00E+00    0.000
1330   0.396    1.06E-01   0.00E+00    0.000
1331   0.3952   3.08E-01   0.00E+00    0.000
1332   0.3944   4.19E-01   0.00E+00    0.000
1333   0.3936   1.51E-01   0.00E+00    0.000
1334   0.3928   2.83E-01   0.00E+00    0.000
1335   0.392    1.10E-01   0.00E+00    0.000
1336   0.3916   2.63E-01   0.00E+00    0.000
1337   0.3912   2.63E-01   0.00E+00    0.000
1338   0.3908   2.25E-01   0.00E+00    0.000
1339   0.3904   2.10E-01   0.00E+00    0.000
1340   0.39     2.96E-01   0.00E+00    0.000
1341   0.3894   2.72E-01   0.00E+00    0.000
1342   0.3888   2.05E-01   0.00E+00    0.000
1343   0.3882   3.95E-01   0.00E+00    0.000
1344   0.3876   1.02E+00   0.00E+00    0.000
1345   0.387    6.04E-01   0.00E+00    0.000
1346   0.3856   1.18E+00   0.00E+00    0.000
1347   0.3842   1.19E+00   0.00E+00    0.000
1348   0.3828   4.46E+00   0.00E+00    0.000
1349   0.3814   1.92E+00   0.00E+00    0.000
1350   0.38     3.27E+00   0.00E+00    0.000
1351   0.379    4.29E+00   0.00E+00    0.000
1352   0.378    6.75E+00   0.00E+00    0.000
1353   0.377    1.34E+01   0.00E+00    0.000
1354   0.376    1.28E+01   0.00E+00    0.000
1355   0.375    3.11E+01   0.00E+00    0.000
1356   0.3744   1.66E+01   0.00E+00    0.000
1357   0.3738   1.57E+01   0.00E+00    0.000
1358   0.3732   2.98E+01   0.00E+00    0.000
1359   0.3726   3.65E+01   0.00E+00    0.000
1360   0.372    2.31E+01   0.00E+00    0.000
1361   0.3704   6.07E+01   0.00E+00    0.000
1362   0.3688   1.49E+02   0.00E+00    0.000
1363   0.3672   2.55E+01   0.00E+00    0.000
1364   0.3656   2.67E+01   0.00E+00    0.000
1365   0.364    9.13E+01   0.00E+00    0.000
1366   0.3638   1.66E+01   0.00E+00    0.000
1367   0.3636   2.48E+01   0.00E+00    0.000
1368   0.3634   9.50E+01   0.00E+00    0.000
1369   0.3632   2.89E+01   0.00E+00    0.000
1370   0.363    3.52E+01   0.00E+00    0.000
1371   0.363    5.18E+01   0.00E+00    0.000
1372   0.363    2.91E+01   0.00E+00    0.000
1373   0.363    1.53E+01   0.00E+00    0.000
1374   0.363    1.21E+01   0.00E+00    0.000
1375   0.363    1.27E+01   0.00E+00    0.000
1376   0.3622   1.20E+01   0.00E+00    0.000
1377   0.3614   1.26E+01   0.00E+00    0.000
1378   0.3606   6.50E+00   0.00E+00    0.000
1379   0.3598   1.83E+01   0.00E+00    0.000
1380   0.359    1.62E+01   0.00E+00    0.000
1381   0.359    5.03E+01   0.00E+00    0.000
1382   0.359    3.13E+01   0.00E+00    0.000
1383   0.359    6.73E+01   0.00E+00    0.000
1384   0.359    3.31E+01   0.00E+00    0.000
1385   0.359    4.00E+01   0.00E+00    0.000
1386   0.358    2.34E+01   0.00E+00    0.000
1387   0.357    8.81E+00   0.00E+00    0.000
1388   0.356    2.65E+01   0.00E+00    0.000
1389   0.355    7.99E+00   0.00E+00    0.000
1390   0.354    9.07E+00   0.00E+00    0.000
1391   0.3538   8.55E+00   0.00E+00    0.000
1392   0.3536   2.09E+01   0.00E+00    0.000
1393   0.3534   1.62E+01   0.00E+00    0.000
1394   0.3532   1.02E+01   0.00E+00    0.000
1395   0.353    3.75E+01   0.00E+00    0.000
1396   0.3522   5.20E+01   0.00E+00    0.000
1397   0.3514   1.89E+01   0.00E+00    0.000
1398   0.3506   5.14E+00   0.00E+00    0.000
1399   0.3498   6.88E+00   0.00E+00    0.000
1400   0.349    4.72E+01   0.00E+00    0.000
1401   0.3484   5.27E+01   0.00E+00    0.000
1402   0.3478   7.20E+00   0.00E+00    0.000
1403   0.3472   4.78E+00   0.00E+00    0.000
1404   0.3466   1.06E+01   0.00E+00    0.000
1405   0.346    3.46E+01   0.00E+00    0.000
1406   0.3454   5.10E+00   0.00E+00    0.000
1407   0.3448   2.01E+01   0.00E+00    0.000
1408   0.3442   5.14E+00   0.00E+00    0.000
1409   0.3436   1.26E+01   0.00E+00    0.000
1410   0.343    1.06E+01   0.00E+00    0.000
1411   0.3426   5.14E+00   0.00E+00    0.000
1412   0.3422   5.32E+00   0.00E+00    0.000
1413   0.3418   2.35E+00   0.00E+00    0.000
1414   0.3414   1.12E+01   0.00E+00    0.000
1415   0.341    1.29E+01   0.00E+00    0.000
1416   0.3408   1.70E+00   0.00E+00    0.000
1417   0.3406   1.88E+00   0.00E+00    0.000
1418   0.3404   2.80E+00   0.00E+00    0.000
1419   0.3402   1.07E+01   0.00E+00    0.000
1420   0.34     4.70E+00   0.00E+00    0.000
1421   0.341    3.21E+00   0.00E+00    0.000
1422   0.342    1.43E+00   0.00E+00    0.000
1423   0.343    3.51E+00   0.00E+00    0.000
1424   0.344    3.51E+00   0.00E+00    0.000
1425   0.345    2.32E+00   0.00E+00    0.000
1426   0.343    2.28E+00   0.00E+00    0.000
1427   0.341    1.30E+00   0.00E+00    0.000
1428   0.339    4.26E+00   0.00E+00    0.000
1429   0.337    1.85E+00   0.00E+00    0.000
1430   0.335    1.21E+00   0.00E+00    0.000
1431   0.3338   1.18E+00   0.00E+00    0.000
1432   0.3326   5.23E+00   0.00E+00    0.000
1433   0.3314   1.66E+00   0.00E+00    0.000
1434   0.3302   2.74E+00   0.00E+00    0.000
1435   0.329    2.29E+00   0.00E+00    0.000
1436   0.3282   1.57E+00   0.00E+00    0.000
1437   0.3274   1.96E+00   0.00E+00    0.000
1438   0.3266   3.93E+00   0.00E+00    0.000
1439   0.3258   1.01E+00   0.00E+00    0.000
1440   0.325    1.47E+00   0.00E+00    0.000
1441   0.3234   1.56E+00   0.00E+00    0.000
1442   0.3218   2.01E+00   0.00E+00    0.000
1443   0.3202   1.92E+00   0.00E+00    0.000
1444   0.3186   8.21E-01   0.00E+00    0.000
1445   0.317    1.35E+00   0.00E+00    0.000
1446   0.318    3.68E+00   0.00E+00    0.000
1447   0.319    1.45E+00   0.00E+00    0.000
1448   0.32     4.32E-01   0.00E+00    0.000
1449   0.321    4.44E-01   0.00E+00    0.000
1450   0.322    2.22E+00   0.00E+00    0.000
1451   0.3188   4.60E+00   0.00E+00    0.000
1452   0.3156   1.13E+00   0.00E+00    0.000
1453   0.3124   6.89E-01   0.00E+00    0.000
1454   0.3092   2.66E-01   0.00E+00    0.000
1455   0.306    8.77E-01   0.00E+00    0.000
1456   0.308    6.64E-01   0.00E+00    0.000
1457   0.31     3.65E-01   0.00E+00    0.000
1458   0.312    3.42E-01   0.00E+00    0.000
1459   0.314    1.55E-01   0.00E+00    0.000
1460   0.316    8.67E-01   0.00E+00    0.000
1461   0.315    4.93E-01   0.00E+00    0.000
1462   0.314    3.15E-01   0.00E+00    0.000
1463   0.313    1.45E+00   0.00E+00    0.000
1464   0.312    2.24E-01   0.00E+00    0.000
1465   0.311    7.58E-01   0.00E+00    0.000
1466   0.311    1.06E+00   0.00E+00    0.000
1467   0.311    1.99E+00   0.00E+00    0.000
1468   0.311    6.82E-01   0.00E+00    0.000
1469   0.311    4.68E-01   0.00E+00    0.000
1470   0.311    1.88E+00   0.00E+00    0.000
1471   0.3102   2.87E+00   0.00E+00    0.000
1472   0.3094   1.63E+00   0.00E+00    0.000
1473   0.3086   8.14E-01   0.00E+00    0.000
1474   0.3078   5.52E-01   0.00E+00    0.000
1475   0.307    1.01E-01   0.00E+00    0.000
1476   0.3062   9.16E-01   0.00E+00    0.000
1477   0.3054   1.01E+00   0.00E+00    0.000
1478   0.3046   1.06E+00   0.00E+00    0.000
1479   0.3038   3.74E-01   0.00E+00    0.000
1480   0.303    1.05E+00   0.00E+00    0.000
1481   0.3022   4.92E-01   0.00E+00    0.000
1482   0.3014   1.04E+00   0.00E+00    0.000
1483   0.3006   1.76E-01   0.00E+00    0.000
1484   0.2998   2.66E-01   0.00E+00    0.000
1485   0.299    2.94E-01   0.00E+00    0.000
1486   0.3      2.89E-01   0.00E+00    0.000
1487   0.301    9.36E-01   0.00E+00    0.000
1488   0.302    3.63E-01   0.00E+00    0.000
1489   0.303    1.04E-01   0.00E+00    0.000
1490   0.304    1.21E-01   0.00E+00    0.000
1491   0.3034   9.17E-02   0.00E+00    0.000
1492   0.3028   1.41E-01   0.00E+00    0.000
1493   0.3022   9.31E-02   0.00E+00    0.000
1494   0.3016   5.47E-02   0.00E+00    0.000
1495   0.301    1.02E-01   0.00E+00    0.000
1496   0.3002   1.21E-01   0.00E+00    0.000
1497   0.2994   3.86E-02   0.00E+00    0.000
1498   0.2986   7.56E-02   0.00E+00    0.000
1499   0.2978   3.80E-02   0.00E+00    0.000
1500   0.297    1.57E-02   0.00E+00    0.000
1501   0.2968   7.18E-03   0.00E+00    0.000
1502   0.2966   2.37E-02   0.00E+00    0.000
1503   0.2964   5.66E-02   0.00E+00    0.000
1504   0.2962   1.22E-01   0.00E+00    0.000
1505   0.296    5.77E-02   0.00E+00    0.000
1506   0.2952   4.69E-03   0.00E+00    0.000
1507   0.2944   8.66E-03   0.00E+00    0.000
1508   0.2936   1.76E-02   0.00E+00    0.000
1509   0.2928   7.08E-02   0.00E+00    0.000
1510   0.292    4.02E-03   0.00E+00    0.000
1511   0.292    5.51E-03   0.00E+00    0.000
1512   0.292    5.44E-03   0.00E+00    0.000
1513   0.292    1.30E-02   0.00E+00    0.000
1514   0.292    2.07E-02   0.00E+00    0.000
1515   0.292    3.80E-03   0.00E+00    0.000
1516   0.2912   6.26E-03   0.00E+00    0.000
1517   0.2904   8.91E-03   0.00E+00    0.000
1518   0.2896   8.83E-03   0.00E+00    0.000
1519   0.2888   9.94E-03   0.00E+00    0.000
1520   0.288    4.05E-03   0.00E+00    0.000
1521   0.2888   7.66E-04   0.00E+00    0.000
1522   0.2896   2.38E-03   0.00E+00    0.000
1523   0.2904   6.01E-04   0.00E+00    0.000
1524   0.2912   1.34E-03   0.00E+00    0.000
1525   0.292    2.97E-03   0.00E+00    0.000
1526   0.2904   2.77E-03   0.00E+00    0.000
1527   0.2888   3.03E-03   0.00E+00    0.000
1528   0.2872   7.01E-04   0.00E+00    0.000
1529   0.2856   1.58E-03   0.00E+00    0.000
1530   0.284    2.33E-03   0.00E+00    0.000
1531   0.2826   2.47E-03   0.00E+00    0.000
1532   0.2812   3.55E-04   0.00E+00    0.000
1533   0.2798   1.04E-04   0.00E+00    0.000
1534   0.2784   2.97E-04   0.00E+00    0.000
1535   0.277    9.33E-04   0.00E+00    0.000
1536   0.2772   3.37E-04   0.00E+00    0.000
1537   0.2774   8.18E-04   0.00E+00    0.000
1538   0.2776   1.30E-04   0.00E+00    0.000
1539   0.2778   3.66E-04   0.00E+00    0.000
1540   0.278    8.26E-05   0.00E+00    0.000
1541   0.2778   1.53E-04   0.00E+00    0.000
1542   0.2776   5.29E-04   0.00E+00    0.000
1543   0.2774   1.70E-04   0.00E+00    0.000
1544   0.2772   6.19E-04   0.00E+00    0.000
1545   0.277    8.44E-05   0.00E+00    0.000
1546   0.2768   3.06E-04   0.00E+00    0.000
1547   0.2766   1.19E-04   0.00E+00    0.000
1548   0.2764   1.12E-04   0.00E+00    0.000
1549   0.2762   4.82E-05   0.00E+00    0.000
1550   0.276    8.07E-05   0.00E+00    0.000
1551   0.2758   1.16E-04   0.00E+00    0.000
1552   0.2756   3.48E-04   0.00E+00    0.000
1553   0.2754   7.36E-05   0.00E+00    0.000
1554   0.2752   1.21E-04   0.00E+00    0.000
1555   0.275    7.01E-05   0.00E+00    0.000
1556   0.2746   9.18E-05   0.00E+00    0.000
1557   0.2742   7.18E-05   0.00E+00    0.000
1558   0.2738   7.35E-05   0.00E+00    0.000
1559   0.2734   8.61E-05   0.00E+00    0.000
1560   0.273    9.18E-05   0.00E+00    0.000
1561   0.2718   8.43E-05   0.00E+00    0.000
1562   0.2706   1.83E-04   0.00E+00    0.000
1563   0.2694   1.39E-04   0.00E+00    0.000
1564   0.2682   1.55E-04   0.00E+00    0.000
1565   0.267    8.06E-05   0.00E+00    0.000
1566   0.2664   1.18E-04   0.00E+00    0.000
1567   0.2658   8.61E-05   0.00E+00    0.000
1568   0.2652   1.23E-04   0.00E+00    0.000
1569   0.2646   5.87E-05   0.00E+00    0.000
1570   0.264    7.01E-05   0.00E+00    0.000
1571   0.2638   7.35E-05   0.00E+00    0.000
1572   0.2636   6.50E-05   0.00E+00    0.000
1573   0.2634   7.18E-05   0.00E+00    0.000
1574   0.2632   7.52E-05   0.00E+00    0.000
1575   0.263    6.02E-05   0.00E+00    0.000
1576   0.2622   9.37E-05   0.00E+00    0.000
1577   0.2614   6.18E-05   0.00E+00    0.000
1578   0.2606   5.55E-05   0.00E+00    0.000
1579   0.2598   1.27E-04   0.00E+00    0.000
1580   0.259    5.86E-05   0.00E+00    0.000
1581   0.2584   6.50E-05   0.00E+00    0.000
1582   0.2578   7.00E-05   0.00E+00    0.000
1583   0.2572   1.99E-04   0.00E+00    0.000
1584   0.2566   5.55E-05   0.00E+00    0.000
1585   0.256    7.00E-05   0.00E+00    0.000
1586   0.2548   1.65E-04   0.00E+00    0.000
1587   0.2536   2.19E-04   0.00E+00    0.000
1588   0.2524   6.02E-05   0.00E+00    0.000
1589   0.2512   5.55E-05   0.00E+00    0.000
1590   0.25     1.18E-04   0.00E+00    0.000
1591   0.2502   9.36E-05   0.00E+00    0.000
1592   0.2504   2.33E-04   0.00E+00    0.000
1593   0.2506   8.41E-05   0.00E+00    0.000
1594   0.2508   1.80E-04   0.00E+00    0.000
1595   0.251    1.02E-04   0.00E+00    0.000
1596   0.2512   1.45E-04   0.00E+00    0.000
1597   0.2514   2.79E-04   0.00E+00    0.000
1598   0.2516   9.35E-05   0.00E+00    0.000
1599   0.2518   9.16E-05   0.00E+00    0.000
1600   0.252    5.85E-05   0.00E+00    0.000
1601   0.251    9.94E-05   0.00E+00    0.000
1602   0.25     1.70E-04   0.00E+00    0.000
1603   0.249    6.33E-05   0.00E+00    0.000
1604   0.248    6.99E-05   0.00E+00    0.000
1605   0.247    6.01E-05   0.00E+00    0.000
1606   0.2474   6.66E-05   0.00E+00    0.000
1607   0.2478   6.33E-05   0.00E+00    0.000
1608   0.2482   1.48E-04   0.00E+00    0.000
1609   0.2486   8.41E-05   0.00E+00    0.000
1610   0.249    8.59E-05   0.00E+00    0.000
1611   0.2488   1.14E-04   0.00E+00    0.000
1612   0.2486   6.33E-05   0.00E+00    0.000
1613   0.2484   1.36E-04   0.00E+00    0.000
1614   0.2482   9.54E-05   0.00E+00    0.000
1615   0.248    7.51E-05   0.00E+00    0.000
1616   0.2474   8.96E-05   0.00E+00    0.000
1617   0.2468   1.45E-04   0.00E+00    0.000
1618   0.2462   6.99E-05   0.00E+00    0.000
1619   0.2456   1.80E-04   0.00E+00    0.000
1620   0.245    6.65E-05   0.00E+00    0.000
1621   0.2458   6.65E-05   0.00E+00    0.000
1622   0.2466   7.16E-05   0.00E+00    0.000
1623   0.2474   6.99E-05   0.00E+00    0.000
1624   0.2482   7.16E-05   0.00E+00    0.000
1625   0.249    1.25E-04   0.00E+00    0.000
1626   0.2484   7.16E-05   0.00E+00    0.000
1627   0.2478   6.82E-05   0.00E+00    0.000
1628   0.2472   7.16E-05   0.00E+00    0.000
1629   0.2466   6.99E-05   0.00E+00    0.000
1630   0.246    7.16E-05   0.00E+00    0.000
1631   0.2452   7.50E-05   0.00E+00    0.000
1632   0.2444   1.83E-04   0.00E+00    0.000
1633   0.2436   1.52E-04   0.00E+00    0.000
1634   0.2428   7.68E-05   0.00E+00    0.000
1635   0.242    1.55E-04   0.00E+00    0.000
1636   0.2408   7.68E-05   0.00E+00    0.000
1637   0.2396   1.01E-04   0.00E+00    0.000
1638   0.2384   7.67E-05   0.00E+00    0.000
1639   0.2372   1.50E-04   0.00E+00    0.000
1640   0.236    3.22E-04   0.00E+00    0.000
1641   0.2366   8.21E-05   0.00E+00    0.000
1642   0.2372   1.40E-04   0.00E+00    0.000
1643   0.2378   8.96E-05   0.00E+00    0.000
1644   0.2384   7.85E-05   0.00E+00    0.000
1645   0.239    2.33E-04   0.00E+00    0.000
1646   0.2384   3.53E-04   0.00E+00    0.000
1647   0.2378   9.93E-05   0.00E+00    0.000
1648   0.2372   1.29E-04   0.00E+00    0.000
1649   0.2366   1.52E-04   0.00E+00    0.000
1650   0.236    1.88E-04   0.00E+00    0.000
1651   0.2364   1.16E-04   0.00E+00    0.000
1652   0.2368   6.68E-04   0.00E+00    0.000
1653   0.2372   3.57E-04   0.00E+00    0.000
1654   0.2376   1.88E-04   0.00E+00    0.000
1655   0.238    1.90E-04   0.00E+00    0.000
1656   0.2378   2.85E-04   0.00E+00    0.000
1657   0.2376   3.39E-04   0.00E+00    0.000
1658   0.2374   2.39E-04   0.00E+00    0.000
1659   0.2372   1.22E-04   0.00E+00    0.000
1660   0.237    1.57E-04   0.00E+00    0.000
1661   0.2362   4.01E-04   0.00E+00    0.000
1662   0.2354   7.02E-04   0.00E+00    0.000
1663   0.2346   1.70E-04   0.00E+00    0.000
1664   0.2338   3.75E-04   0.00E+00    0.000
1665   0.233    1.45E-04   0.00E+00    0.000
1666   0.2328   5.53E-04   0.00E+00    0.000
1667   0.2326   1.36E-04   0.00E+00    0.000
1668   0.2324   9.33E-05   0.00E+00    0.000
1669   0.2322   5.79E-04   0.00E+00    0.000
1670   0.232    1.85E-04   0.00E+00    0.000
1671   0.2304   2.39E-04   0.00E+00    0.000
1672   0.2288   2.24E-04   0.00E+00    0.000
1673   0.2272   1.59E-04   0.00E+00    0.000
1674   0.2256   2.54E-04   0.00E+00    0.000
1675   0.224    2.51E-04   0.00E+00    0.000
1676   0.2242   5.18E-04   0.00E+00    0.000
1677   0.2244   3.94E-04   0.00E+00    0.000
1678   0.2246   5.79E-04   0.00E+00    0.000
1679   0.2248   1.90E-04   0.00E+00    0.000
1680   0.225    2.88E-04   0.00E+00    0.000
1681   0.2246   1.38E-04   0.00E+00    0.000
1682   0.2242   1.27E-04   0.00E+00    0.000
1683   0.2238   1.75E-04   0.00E+00    0.000
1684   0.2234   1.61E-03   0.00E+00    0.000
1685   0.223    1.33E-04   0.00E+00    0.000
1686   0.223    1.72E-04   0.00E+00    0.000
1687   0.223    5.31E-04   0.00E+00    0.000
1688   0.223    1.47E-04   0.00E+00    0.000
1689   0.223    2.57E-04   0.00E+00    0.000
1690   0.223    5.53E-04   0.00E+00    0.000
1691   0.222    3.59E-03   0.00E+00    0.000
1692   0.221    9.17E-04   0.00E+00    0.000
1693   0.22     1.33E-04   0.00E+00    0.000
1694   0.219    6.63E-04   0.00E+00    0.000
1695   0.218    1.38E-04   0.00E+00    0.000
1696   0.2186   2.69E-04   0.00E+00    0.000
1697   0.2192   8.13E-03   0.00E+00    0.000
1698   0.2198   1.72E-04   0.00E+00    0.000
1699   0.2204   5.66E-04   0.00E+00    0.000
1700   0.221    8.41E-04   0.00E+00    0.000
1702   0.219    1.45E-04   0.00E+00    0.000
1705   0.216    2.20E-03   0.00E+00    0.000
1710   0.207    2.25E-03   0.00E+00    0.000
1715   0.216    3.38E-03   0.00E+00    0.000
1720   0.209    2.60E-03   0.00E+00    0.000
1725   0.2      5.67E-03   0.00E+00    0.000
1730   0.194    6.07E-03   0.00E+00    0.000
1735   0.193    9.18E-03   0.00E+00    0.000
1740   0.195    9.86E-03   0.00E+00    0.000
1745   0.189    1.76E-02   0.00E+00    0.000
1750   0.191    1.01E-02   0.00E+00    0.000
1755   0.193    2.11E-02   0.00E+00    0.000
1760   0.188    1.35E-02   0.00E+00    0.000
1765   0.186    4.87E-02   0.00E+00    0.000
1770   0.18     3.33E-02   0.00E+00    0.000
1775   0.176    8.28E-02   0.00E+00    0.000
1780   0.174    1.35E-01   0.00E+00    0.000
1785   0.173    2.67E-01   0.00E+00    0.000
1790   0.172    1.77E-01   0.00E+00    0.000
1795   0.176    9.59E-01   0.00E+00    0.000
1800   0.172    1.36E+00   0.00E+00    0.000
1805   0.171    2.61E+00   0.00E+00    0.000
1810   0.163    3.62E+00   0.00E+00    0.000
1815   0.163    5.15E+00   0.00E+00    0.000
1820   0.162    1.19E+01   0.00E+00    0.000
1825   0.159    7.36E+00   0.00E+00    0.000
1830   0.159    1.89E+01   0.00E+00    0.000
1835   0.153    3.52E+01   0.00E+00    0.000
1840   0.156    5.87E+01   0.00E+00    0.000
1845   0.154    2.23E+01   0.00E+00    0.000
1850   0.151    3.58E+01   0.00E+00    0.000
1855   0.148    3.94E+01   0.00E+00    0.000
1860   0.146    2.70E+01   0.00E+00    0.000
1865   0.146    1.21E+01   0.00E+00    0.000
1870   0.138    7.89E+01   0.00E+00    0.000
1875   0.138    7.01E+01   0.00E+00    0.000
1880   0.143    1.04E+01   0.00E+00    0.000
1885   0.141    1.28E+01   0.00E+00    0.000
1890   0.14     1.29E+01   0.00E+00    0.000
1895   0.141    8.14E+00   0.00E+00    0.000
1900   0.136    4.03E+01   0.00E+00    0.000
1905   0.139    5.54E+01   0.00E+00    0.000
1910   0.141    1.18E+01   0.00E+00    0.000
1915   0.139    2.50E+01   0.00E+00    0.000
1920   0.137    1.95E+01   0.00E+00    0.000
1925   0.135    7.28E+00   0.00E+00    0.000
1930   0.135    7.49E+00   0.00E+00    0.000
1935   0.134    2.79E+00   0.00E+00    0.000
1940   0.132    3.39E+00   0.00E+00    0.000
1945   0.13     2.68E+00   0.00E+00    0.000
1950   0.129    9.47E-01   0.00E+00    0.000
1955   0.124    1.31E+00   0.00E+00    0.000
1960   0.128    8.17E-01   0.00E+00    0.000
1965   0.128    3.17E-01   0.00E+00    0.000
1970   0.127    1.45E-01   0.00E+00    0.000
1975   0.132    1.04E-01   0.00E+00    0.000
1980   0.127    9.98E-02   0.00E+00    0.000
1985   0.125    6.08E-02   0.00E+00    0.000
1990   0.123    6.16E-02   0.00E+00    0.000
1995   0.125    4.08E-02   0.00E+00    0.000
2000   0.118    2.54E-02   0.00E+00    0.000
2005   0.112    5.94E-02   0.00E+00    0.000
2010   0.116    5.96E-03   0.00E+00    0.000
2015   0.114    2.70E-02   0.00E+00    0.000
2020   0.115    1.47E-02   0.00E+00    0.000
2025   0.115    5.71E-03   0.00E+00    0.000
2030   0.112    1.10E-02   0.00E+00    0.000
2035   0.109    2.72E-03   0.00E+00    0.000
2040   0.109    5.76E-03   0.00E+00    0.000
2045   0.11     3.69E-03   0.00E+00    0.000
2050   0.106    4.10E-03   0.00E+00    0.000
2055   0.104    4.06E-03   0.00E+00    0.000
2060   0.102    5.01E-03   0.00E+00    0.000
2065   0.097    3.27E-03   0.00E+00    0.000
2070   0.101    3.88E-03   0.00E+00    0.000
2075   0.103    4.42E-03   0.00E+00    0.000
2080   0.099    2.31E-03   0.00E+00    0.000
2085   0.098    2.29E-03   0.00E+00    0.000
2090   0.1      2.55E-03   0.00E+00    0.000
2095   0.093    3.74E-03   0.00E+00    0.000
2100   0.095    6.94E-03   0.00E+00    0.000
2105   0.095    2.06E-03   0.00E+00    0.000
2110   0.089    3.49E-03   0.00E+00    0.000
2115   0.092    2.55E-03   0.00E+00    0.000
2120   0.089    3.63E-03   0.00E+00    0.000
2125   0.089    2.36E-03   0.00E+00    0.000
2130   0.089    2.46E-03   0.00E+00    0.000
2135   0.087    2.00E-03   0.00E+00    0.000
2140   0.092    1.35E-03   0.00E+00    0.000
2145   0.084    1.33E-03   0.00E+00    0.000
2150   0.083    3.69E-03   0.00E+00    0.000
2155   0.081    2.95E-03   0.00E+00    0.000
2160   0.084    4.51E-03   0.00E+00    0.000
2165   0.082    4.18E-03   0.00E+00    0.000
2170   0.084    3.83E-03   0.00E+00    0.000
2175   0.079    4.23E-03   0.00E+00    0.000
2180   0.077    3.48E-03   0.00E+00    0.000
2185   0.069    1.10E-02   0.00E+00    0.000
2190   0.074    3.38E-03   0.00E+00    0.000
2195   0.075    4.15E-03   0.00E+00    0.000
2200   0.084    4.87E-03   0.00E+00    0.000
2205   0.077    4.45E-03   0.00E+00    0.000
2210   0.077    2.78E-03   0.00E+00    0.000
2215   0.074    2.74E-03   0.00E+00    0.000
2220   0.079    2.01E-03   0.00E+00    0.000
2225   0.077    3.19E-03   0.00E+00    0.000
2230   0.077    1.20E-03   0.00E+00    0.000
2235   0.066    1.96E-03   0.00E+00    0.000
2240   0.061    1.20E-03   0.00E+00    0.000
2245   0.073    1.68E-03   0.00E+00    0.000
2250   0.077    1.28E-03   0.00E+00    0.000
2255   0.077    1.42E-03   0.00E+00    0.000
2260   0.072    1.48E-03   0.00E+00    0.000
2265   0.073    1.35E-03   0.00E+00    0.000
2270   0.066    1.45E-03   0.00E+00    0.000
2275   0.065    1.46E-03   0.00E+00    0.000
2280   0.07     1.55E-03   0.00E+00    0.000
2285   0.067    1.56E-03   0.00E+00    0.000
2290   0.067    1.66E-03   0.00E+00    0.000
2295   0.066    1.76E-03   0.00E+00    0.000
2300   0.067    3.22E-03   0.00E+00    0.000
2305   0.064    3.69E-03   0.00E+00    0.000
2310   0.063    5.66E-03   0.00E+00    0.000
2315   0.059    5.47E-03   0.00E+00    0.000
2320   0.054    5.73E-03   0.00E+00    0.000
2325   0.056    7.71E-03   0.00E+00    0.000
2330   0.056    4.95E-03   0.00E+00    0.000
2335   0.06     3.38E-03   0.00E+00    0.000
2340   0.059    2.15E-02   0.00E+00    0.000
2345   0.061    8.36E-03   0.00E+00    0.000
2350   0.062    3.15E-02   0.00E+00    0.000
2355   0.064    1.36E-02   0.00E+00    0.000
2360   0.066    1.11E-02   0.00E+00    0.000
2365   0.062    1.86E-02   0.00E+00    0.000
2370   0.062    6.29E-02   0.00E+00    0.000
2375   0.058    2.71E-02   0.00E+00    0.000
2380   0.056    6.31E-02   0.00E+00    0.000
2390   0.06     9.02E-02   0.00E+00    0.000
2395   0.059    5.52E-02   0.00E+00    0.000
2400   0.055    4.75E-02   0.00E+00    0.000
2405   0.056    1.43E-01   0.00E+00    0.000
2410   0.057    1.40E-01   0.00E+00    0.000
2415   0.054    3.75E-01   0.00E+00    0.000
2420   0.058    3.19E-01   0.00E+00    0.000
2425   0.055    1.53E-01   0.00E+00    0.000
2430   0.059    6.21E-02   0.00E+00    0.000
2435   0.055    1.11E+00   0.00E+00    0.000
2440   0.052    7.18E-02   0.00E+00    0.000
2445   0.05     5.47E-01   0.00E+00    0.000
2450   0.051    9.98E-01   0.00E+00    0.000
2455   0.052    3.92E-01   0.00E+00    0.000
2460   0.049    1.95E-01   0.00E+00    0.000
2465   0.054    4.71E-01   0.00E+00    0.000
2470   0.049    1.06E+00   0.00E+00    0.000
2475   0.054    9.07E-01   0.00E+00    0.000
2480   0.051    1.50E+00   0.00E+00    0.000
2485   0.048    2.87E+00   0.00E+00    0.000
2490   0.055    3.87E+00   0.00E+00    0.000
2495   0.047    4.10E+00   0.00E+00    0.000
2500   0.0512   1.80E+00   0.00E+00    0.000
2505   0.0505   3.16E+00   0.00E+00    0.000
2510   0.0491   3.28E+00   0.00E+00    0.000
2515   0.0478   9.45E+00   0.00E+00    0.000
2520   0.0469   3.72E+00   0.00E+00    0.000
2525   0.0463   9.35E+00   0.00E+00    0.000
2530   0.0466   3.29E+01   0.00E+00    0.000
2535   0.046    3.08E+01   0.00E+00    0.000
2540   0.0461   1.84E+01   0.00E+00    0.000
2545   0.0458   8.71E+01   0.00E+00    0.000
2550   0.0455   9.26E+01   0.00E+00    0.000
2555   0.0452   3.16E+01   0.00E+00    0.000
2560   0.0445   1.54E+02   0.00E+00    0.000
2565   0.0443   2.21E+02   0.00E+00    0.000
2570   0.0439   2.80E+02   0.00E+00    0.000
2575   0.0433   3.97E+02   0.00E+00    0.000
2580   0.043    2.37E+02   0.00E+00    0.000
2585   0.0425   6.95E+02   0.00E+00    0.000
2590   0.0422   4.44E+02   0.00E+00    0.000
2595   0.0419   1.53E+03   0.00E+00    0.000
2600   0.0417   3.43E+02   0.00E+00    0.000
2605   0.0416   1.63E+03   0.00E+00    0.000
2610   0.0413   6.78E+02   0.00E+00    0.000
2615   0.0411   8.77E+02   0.00E+00    0.000
2620   0.0409   1.01E+03   0.00E+00    0.000
2625   0.0404   3.24E+02   0.00E+00    0.000
2630   0.04     1.21E+03   0.00E+00    0.000
2635   0.0396   2.84E+02   0.00E+00    0.000
2640   0.0391   9.65E+01   0.00E+00    0.000
2645   0.0389   2.46E+02   0.00E+00    0.000
2650   0.0387   1.34E+02   0.00E+00    0.000
2655   0.0386   4.19E+02   0.00E+00    0.000
2660   0.0384   6.67E+02   0.00E+00    0.000
2665   0.0383   1.80E+03   0.00E+00    0.000
2670   0.0382   2.13E+03   0.00E+00    0.000
2675   0.0378   1.16E+03   0.00E+00    0.000
2680   0.0375   9.36E+02   0.00E+00    0.000
2685   0.0372   5.81E+02   0.00E+00    0.000
2690   0.0368   2.53E+02   0.00E+00    0.000
2695   0.0365   1.10E+03   0.00E+00    0.000
2700   0.036    3.18E+02   0.00E+00    0.000
2705   0.0359   1.46E+02   0.00E+00    0.000
2710   0.0357   1.31E+03   0.00E+00    0.000
2715   0.0356   2.23E+02   0.00E+00    0.000
2720   0.0355   1.44E+03   0.00E+00    0.000
2725   0.0353   8.64E+02   0.00E+00    0.000
2730   0.0352   7.84E+01   0.00E+00    0.000
2735   0.0349   3.19E+02   0.00E+00    0.000
2740   0.0348   1.49E+03   0.00E+00    0.000
2745   0.0346   2.20E+02   0.00E+00    0.000
2750   0.0345   1.80E+02   0.00E+00    0.000
2755   0.0343   7.90E+02   0.00E+00    0.000
2760   0.0341   2.65E+02   0.00E+00    0.000
2765   0.0338   6.35E+02   0.00E+00    0.000
2770   0.0336   3.86E+02   0.00E+00    0.000
2775   0.0333   1.61E+02   0.00E+00    0.000
2780   0.0329   3.02E+02   0.00E+00    0.000
2785   0.0327   2.19E+02   0.00E+00    0.000
2790   0.0324   1.40E+02   0.00E+00    0.000
2795   0.0321   7.74E+01   0.00E+00    0.000
2800   0.032    8.41E+01   0.00E+00    0.000
2805   0.0318   3.35E+02   0.00E+00    0.000
2810   0.0317   4.24E+01   0.00E+00    0.000
2815   0.0316   6.13E+01   0.00E+00    0.000
2820   0.0314   1.39E+02   0.00E+00    0.000
2825   0.0312   1.66E+01   0.00E+00    0.000
2830   0.0311   1.54E+01   0.00E+00    0.000
2835   0.0308   1.05E+02   0.00E+00    0.000
2840   0.0306   3.76E+01   0.00E+00    0.000
2845   0.0303   9.18E+00   0.00E+00    0.000
2850   0.03     3.83E+01   0.00E+00    0.000
2855   0.0297   5.57E+01   0.00E+00    0.000
2860   0.0294   1.14E+01   0.00E+00    0.000
2865   0.0292   4.89E+00   0.00E+00    0.000
2870   0.029    2.00E+01   0.00E+00    0.000
2875   0.0288   7.31E+00   0.00E+00    0.000
2880   0.0287   4.38E+00   0.00E+00    0.000
2885   0.0285   5.09E+00   0.00E+00    0.000
2890   0.0284   8.42E+00   0.00E+00    0.000
2895   0.0283   2.31E+00   0.00E+00    0.000
2900   0.0282   1.54E+01   0.00E+00    0.000
2905   0.0281   1.10E+01   0.00E+00    0.000
2910   0.0279   2.31E+00   0.00E+00    0.000
2915   0.0276   4.65E+00   0.00E+00    0.000
2920   0.0274   2.05E+00   0.00E+00    0.000
2925   0.0272   4.73E+00   0.00E+00    0.000
2930   0.0269   1.16E+00   0.00E+00    0.000
2935   0.0266   1.03E+00   0.00E+00    0.000
2940   0.0264   2.49E+00   0.00E+00    0.000
2945   0.0261   5.02E+00   0.00E+00    0.000
2950   0.0259   1.28E+00   0.00E+00    0.000
2955   0.0258   1.97E+00   0.00E+00    0.000
2960   0.0256   1.06E+00   0.00E+00    0.000
2965   0.0255   6.10E-01   0.00E+00    0.000
2970   0.0254   8.81E+00   0.00E+00    0.000
2975   0.0253   4.43E+00   0.00E+00    0.000
2980   0.0251   2.14E+00   0.00E+00    0.000
2985   0.025    5.39E-01   0.00E+00    0.000
2990   0.0249   3.50E-01   0.00E+00    0.000
2995   0.0248   1.45E+00   0.00E+00    0.000
3000   0.0247   6.20E-01   0.00E+00    0.000
3005   0.0245   1.48E+00   0.00E+00    0.000
3010   0.0244   6.58E-01   0.00E+00    0.000
3015   0.0243   7.83E-01   0.00E+00    0.000
3020   0.0241   7.03E+00   0.00E+00    0.000
3025   0.024    5.61E-01   0.00E+00    0.000
3030   0.0239   9.23E-01   0.00E+00    0.000
3035   0.0238   1.63E+00   0.00E+00    0.000
3040   0.0237   2.44E+00   0.00E+00    0.000
3045   0.0236   1.34E+00   0.00E+00    0.000
3050   0.0235   4.95E+00   0.00E+00    0.000
3055   0.0235   7.01E+00   0.00E+00    0.000
3060   0.0234   7.16E-01   0.00E+00    0.000
3065   0.0232   1.38E+00   0.00E+00    0.000
3070   0.0231   2.94E+00   0.00E+00    0.000
3075   0.023    7.80E-01   0.00E+00    0.000
3080   0.0228   1.17E+00   0.00E+00    0.000
3085   0.0226   2.54E+00   0.00E+00    0.000
3090   0.0224   1.95E+00   0.00E+00    0.000
3095   0.0222   5.11E+00   0.00E+00    0.000
3100   0.022    1.04E+00   0.00E+00    0.000
3105   0.0218   4.13E+00   0.00E+00    0.000
3110   0.0216   5.11E+00   0.00E+00    0.000
3115   0.0214   1.81E+00   0.00E+00    0.000
3120   0.0212   3.28E-01   7.78E-04    0.000
3125   0.021    1.22E+00   8.77E-03    0.000
3130   0.0209   6.47E-01   9.55E-03    0.000
3135   0.0208   2.28E-01   3.31E-03    0.000
3140   0.0206   1.03E+00   3.89E-03    0.000
3145   0.0205   1.20E+00   4.67E-03    0.000
3150   0.0204   4.80E-01   4.87E-03    0.000
3155   0.0203   6.06E-01   4.48E-03    0.000
3160   0.0202   2.31E-01   3.70E-03    0.000
3165   0.0202   5.31E-02   2.72E-03    0.000
3170   0.0201   1.10E-01   2.14E-03    0.000
3175   0.02     1.91E-01   1.56E-03    0.000
3180   0.0199   2.00E-01   1.36E-03    0.000
3185   0.0198   1.93E-01   1.17E-03    0.000
3190   0.0198   7.35E-01   1.17E-03    0.000
3195   0.0197   1.28E+00   1.17E-03    0.000
3200   0.0196   6.08E+00   1.56E-03    0.000
3205   0.0195   9.09E+00   1.36E-03    0.000
3210   0.0194   8.22E+00   1.75E-03    0.000
3215   0.0193   4.44E+00   1.17E-03    0.000
3220   0.0192   1.75E+00   1.36E-03    0.000
3225   0.0191   7.16E+00   1.95E-03    0.000
3230   0.0191   5.05E+00   8.96E-03    0.000
3235   0.019    3.56E-01   3.70E-03    0.000
3240   0.019    5.79E-01   1.56E-03    0.000
3245   0.0189   4.54E+00   1.17E-03    0.000
3250   0.0189   6.83E-01   1.75E-03    0.000
3255   0.0187   1.90E-01   2.33E-03    0.000
3260   0.0186   1.22E+00   2.33E-03    0.000
3265   0.0185   1.90E+00   2.53E-03    0.000
3270   0.0184   1.55E+00   8.62E-02    0.000
3275   0.0183   5.71E-01   1.68E-01    0.000
3280   0.0182   7.67E-01   7.75E-02    0.000
3285   0.0182   1.36E-01   4.82E-02    0.000
3290   0.0182   1.50E-01   6.22E-02    0.000
3295   0.0181   1.73E+00   6.66E-02    0.000
3300   0.0179   1.36E+00   6.72E-02    0.000
3305   0.0177   8.18E-01   5.64E-02    0.000
3310   0.0175   3.84E-01   4.58E-02    0.000
3315   0.0174   5.10E-01   3.75E-02    0.000
3320   0.0172   5.71E+00   2.58E-02    0.000
3325   0.017    4.05E-01   1.91E-02    0.000
3330   0.0168   4.31E-01   1.31E-02    0.000
3335   0.0167   7.95E-02   8.77E-03    0.000
3340   0.0165   6.03E-01   5.84E-03    0.000
3345   0.0164   5.57E-01   3.89E-03    0.000
3350   0.0162   1.85E-01   2.33E-03    0.000
3355   0.0161   4.50E-01   1.56E-03    0.000
3360   0.0159   3.79E-01   9.72E-04    0.000
3365   0.0159   2.36E-01   5.83E-04    0.000
3370   0.0158   2.32E-01   3.89E-04    0.000
3375   0.0157   1.36E-01   1.94E-04    0.000
3380   0.0156   8.31E-02   1.94E-04    0.000
3385   0.0156   1.35E-01   1.94E-04    0.000
3390   0.0155   1.35E-02   1.94E-04    0.000
3395   0.0155   3.18E-02   1.94E-04    0.000
3400   0.0154   1.45E-02   1.94E-04    0.000
3405   0.0153   1.15E-01   1.94E-04    0.000
3410   0.0152   1.69E-01   1.94E-04    0.000
3415   0.0152   1.95E-02   1.94E-04    0.000
3420   0.0151   7.18E-03   1.94E-04    0.000
3425   0.015    7.88E-03   1.94E-04    0.000
3430   0.0149   3.94E-03   1.94E-04    0.000
3435   0.0148   1.93E-02   3.89E-04    0.000
3440   0.0147   1.23E-02   3.89E-04    0.000
3445   0.0147   2.01E-02   3.89E-04    0.000
3450   0.0146   3.83E-03   1.94E-04    0.000
3455   0.0146   2.84E-02   1.94E-04    0.000
3460   0.0145   1.21E-02   1.94E-04    0.000
3465   0.0145   3.92E-03   1.94E-04    0.000
3470   0.0144   8.82E-03   1.94E-04    0.000
3475   0.0143   1.07E-02   1.94E-04    0.000
3480   0.0142   5.46E-03   1.94E-04    0.000
3485   0.0142   7.60E-03   1.94E-04    0.000
3490   0.0141   1.33E-02   1.94E-04    0.000
3495   0.0141   6.92E-03   1.94E-04    0.000
3500   0.014    8.63E-03   1.94E-04    0.000
3505   0.0139   7.94E-03   1.94E-04    0.000
3510   0.0138   1.00E-02   1.94E-04    0.000
3515   0.0138   2.07E-02   1.94E-04    0.000
3520   0.0137   1.06E-02   0.00E+00    0.000
3525   0.0137   1.57E-02   0.00E+00    0.000
3530   0.0136   1.41E-02   0.00E+00    0.000
3535   0.0136   2.15E-02   0.00E+00    0.000
3540   0.0135   2.70E-02   0.00E+00    0.000
3545   0.0135   2.00E-02   0.00E+00    0.000
3550   0.0134   2.02E-02   0.00E+00    0.000
3555   0.0133   4.49E-02   0.00E+00    0.000
3560   0.0132   1.34E-02   0.00E+00    0.000
3565   0.0132   8.16E-03   2.92E-03    0.000
3570   0.0131   5.64E-02   1.84E-02    0.000
3575   0.013    3.18E-02   2.78E-02    0.000
3580   0.0129   1.22E-02   2.03E-02    0.000
3585   0.0129   2.61E-02   8.18E-03    0.000
3590   0.0128   2.99E-02   1.62E-02    0.000
3595   0.0128   2.38E-02   9.74E-03    0.000
3600   0.0127   1.54E-02   1.13E-02    0.000
3605   0.0127   6.92E-03   1.48E-02    0.000
3610   0.0126   2.58E-02   1.41E-02    0.000
3615   0.0126   2.74E-02   1.19E-02    0.000
3620   0.0125   4.05E-03   8.96E-03    0.000
3625   0.0125   1.04E-02   7.60E-03    0.000
3630   0.0124   1.82E-02   5.06E-03    0.000
3635   0.0124   1.51E-02   3.70E-03    0.000
3640   0.0123   4.00E-03   2.53E-03    0.000
3645   0.0123   3.71E-03   1.95E-03    0.000
3650   0.0122   9.80E-03   1.95E-03    0.000
3655   0.0122   8.59E-03   3.89E-03    0.000
3660   0.0121   7.28E-03   1.17E-03    0.000
3665   0.0121   9.42E-03   5.83E-04    0.000
3670   0.012    5.88E-02   1.94E-04    0.000
3675   0.012    2.51E-01   5.83E-04    0.000
3680   0.0119   6.60E-02   5.83E-04    0.000
3685   0.0118   2.35E-02   5.83E-04    0.000
3690   0.0117   1.53E-02   5.83E-04    0.000
3695   0.0117   1.24E-02   3.89E-04    0.000
3700   0.0116   3.59E-03   3.89E-04    0.000
3705   0.0116   3.55E-03   3.89E-04    0.000
3710   0.0115   1.43E-02   3.89E-04    0.000
3715   0.0115   1.59E-02   3.89E-04    0.000
3720   0.0114   6.53E-03   1.94E-04    0.000
3725   0.0114   6.53E-03   1.94E-04    0.000
3730   0.0113   1.32E-02   1.94E-04    0.000
3735   0.0113   2.89E-02   1.94E-04    0.000
3740   0.0112   1.88E-02   1.94E-04    0.000
3745   0.0112   8.34E-03   1.94E-04    0.000
3750   0.011    1.16E-02   1.94E-04    0.000
3755   0.011    1.90E-02   0.00E+00    0.000
3760   0.0109   2.03E-02   0.00E+00    0.000
3765   0.0109   2.11E-02   0.00E+00    0.000
3770   0.0108   1.63E-02   0.00E+00    0.000
3775   0.0108   1.25E-02   0.00E+00    0.000
3780   0.0107   7.53E-03   0.00E+00    0.000
3785   0.0107   2.12E-02   0.00E+00    0.000
3790   0.0106   3.16E-02   0.00E+00    0.000
3795   0.0106   1.31E-02   0.00E+00    0.000
3800   0.0105   3.75E-03   0.00E+00    0.000
3805   0.0105   7.66E-03   0.00E+00    0.000
3810   0.0104   2.44E-02   0.00E+00    0.000
3815   0.0104   3.22E-02   0.00E+00    0.000
3820   0.0103   5.12E-03   0.00E+00    0.000
3825   0.0103   3.42E-03   0.00E+00    0.000
3830   0.0102   7.85E-03   0.00E+00    0.000
3835   0.0102   3.15E-02   0.00E+00    0.000
3840   0.0101   6.62E-03   0.00E+00    0.000
3845   0.0101   4.03E-03   0.00E+00    0.000
3850   0.01     3.37E-03   0.00E+00    0.000
3855   0.01     7.58E-03   0.00E+00    0.000
3860   0.0099   1.01E-02   0.00E+00    0.000
3865   0.0099   6.21E-03   0.00E+00    0.000
3870   0.0098   3.18E-03   0.00E+00    0.000
3875   0.0098   6.74E-03   0.00E+00    0.000
3880   0.0097   4.34E-03   0.00E+00    0.000
3885   0.0097   5.03E-03   0.00E+00    0.000
3890   0.0097   2.88E-03   0.00E+00    0.000
3895   0.0096   3.87E-03   0.00E+00    0.000
3900   0.0096   6.96E-03   0.00E+00    0.000
3905   0.0096   3.46E-03   0.00E+00    0.000
3910   0.0095   2.72E-03   0.00E+00    0.000
3915   0.0095   3.57E-03   0.00E+00    0.000
3920   0.0094   5.09E-03   0.00E+00    0.000
3925   0.0094   2.99E-03   0.00E+00    0.000
3930   0.0093   3.37E-03   0.00E+00    0.000
3935   0.0093   2.26E-03   0.00E+00    0.000
3940   0.0092   2.61E-03   0.00E+00    0.000
3945   0.0092   3.85E-03   0.00E+00    0.000
3950   0.0091   3.78E-03   0.00E+00    0.000
3955   0.0091   2.35E-03   0.00E+00    0.000
3960   0.009    2.31E-03   0.00E+00    0.000
3965   0.009    2.52E-03   0.00E+00    0.000
3970   0.0089   2.91E-03   0.00E+00    0.000
3975   0.0089   2.87E-03   0.00E+00    0.000
3980   0.0088   2.38E-03   0.00E+00    0.000
3985   0.0088   2.23E-03   2.00E-04    0.000
3990   0.0088   2.37E-03   2.00E-04    0.000
3995   0.0087   2.41E-03   2.00E-04    0.000
4000   0.0087   2.38E-03   2.00E-04    0.000
4005   0.00866  1.53E-02   2.00E-04    0.000
4010   0.00862  1.24E-02   2.00E-04    0.000
4015   0.00858  3.59E-03   0.00E+00    0.000
4020   0.00854  3.55E-03   0.00E+00    0.000